Timestamp;Accel_x;Accel_y;Accel_z;Gyro_x;Gyro_y;Gyro_z;Light;Magnetic_x;Magnetic_y;Magnetic_z;Proximity;Latitude;Longitude;Elevation;Speed
20211011_185044.0;-0.547;-1.083;9.552;-0.000;-0.004;0.004;220.3;-31.931;5.044;-61.669;5.0;-32.87768;-60.69758;41.1;13.7
20211011_185045.0;-0.109;-0.788;9.135;0.004;0.004;0.022;220.3;-32.700;6.638;-61.950;5.0;-32.87785;-60.69752;40.7;17.2
20211011_185045.5;-0.236;-0.829;9.698;-0.001;-0.003;0.015;197.4;-32.381;5.531;-61.650;5.0;-32.87790;-60.69750;40.7;17.2
20211011_185046.0;-0.423;-0.851;9.813;-0.011;-0.010;-0.007;176.7;-32.663;5.531;-62.419;5.0;-32.87790;-60.69750;40.7;17.2
20211011_185046.5;-0.348;-0.764;9.355;-0.010;0.002;-0.006;176.7;-33.281;6.806;-60.244;5.0;-32.87783;-60.69756;40.7;6.7
20211011_185047.0;-0.389;-0.855;9.698;-0.002;-0.009;0.004;176.7;-35.400;6.056;-60.188;5.0;-32.87783;-60.69756;40.7;6.7
20211011_185047.5;-0.293;-0.786;9.707;0.000;0.005;0.002;176.7;-33.150;7.125;-61.631;5.0;-32.87785;-60.69755;40.3;5.8
20211011_185048.0;-0.430;-0.846;10.004;0.002;-0.027;-0.004;176.7;-33.994;6.506;-60.994;5.0;-32.87785;-60.69755;40.3;5.8
20211011_185048.5;-0.363;-0.795;9.813;-0.009;0.003;-0.003;160.2;-33.413;6.656;-61.313;5.0;-32.87785;-60.69755;41.1;4.2
20211011_185049.0;-0.241;-0.872;9.755;0.001;-0.012;-0.001;160.2;-31.950;5.513;-61.669;5.0;-32.87785;-60.69755;41.1;4.2
20211011_185049.5;-0.341;-0.944;9.980;0.003;-0.002;-0.000;160.2;-33.244;5.700;-61.781;5.0;-32.87786;-60.69755;41.4;4.1
20211011_185050.0;-0.372;-0.980;9.906;0.002;0.002;-0.004;160.2;-32.588;7.575;-62.588;5.0;-32.87786;-60.69755;41.4;4.1
20211011_185050.5;-0.399;-0.427;9.403;0.005;0.004;-0.003;160.2;-31.144;7.238;-62.306;5.0;-32.87787;-60.69754;42.3;3.5
20211011_185051.0;-0.298;-0.740;9.590;-0.004;0.005;-0.000;160.2;-31.256;6.300;-60.600;5.0;-32.87787;-60.69754;42.3;3.5
20211011_185051.5;-0.312;-0.915;9.698;0.004;0.002;0.009;160.2;-32.606;8.063;-64.913;5.0;-32.87788;-60.69754;41.8;2.9
20211011_185052.0;-0.303;-1.076;9.947;-0.004;-0.003;0.008;160.2;-33.431;7.125;-62.719;5.0;-32.87788;-60.69754;41.8;2.9
20211011_185052.5;-0.291;-1.162;9.631;-0.002;0.001;0.002;160.2;-30.975;6.600;-62.456;5.0;-32.87789;-60.69754;42.3;2.3
20211011_185053.0;-0.303;-1.214;9.631;-0.004;0.007;0.002;160.2;-32.700;6.319;-61.650;5.0;-32.87789;-60.69754;42.3;2.3
20211011_185053.5;-0.423;-1.214;9.645;-0.000;-0.001;0.001;160.2;-33.263;6.488;-61.781;5.0;-32.87789;-60.69753;43.6;2.1
20211011_185054.0;-0.358;-0.784;9.858;-0.001;-0.003;0.001;160.2;-32.738;8.213;-60.881;5.0;-32.87789;-60.69753;43.6;2.1
20211011_185054.5;-0.389;-0.781;9.839;-0.001;0.001;-0.000;160.2;-32.681;5.850;-61.950;5.0;-32.87789;-60.69754;44.2;0.0
20211011_185055.0;-0.320;-0.733;9.583;-0.001;-0.001;-0.000;160.2;-32.963;5.700;-61.481;5.0;-32.87789;-60.69754;44.2;0.0
20211011_185055.5;-0.360;-0.719;9.580;0.001;0.002;0.000;160.2;-32.513;5.213;-60.244;5.0;-32.87789;-60.69754;44.5;0.0
20211011_185056.0;-0.336;-0.716;9.597;-0.001;-0.001;0.000;160.2;-32.681;5.850;-61.950;5.0;-32.87789;-60.69754;44.5;0.0
20211011_185056.5;-0.358;-0.779;9.755;-0.001;0.002;0.000;160.2;-32.625;3.956;-61.950;5.0;-32.87789;-60.69754;44.3;0.0
20211011_185057.0;-0.317;-0.728;9.604;-0.001;0.001;-0.000;160.2;-32.700;6.319;-61.650;5.0;-32.87789;-60.69754;44.3;0.0
20211011_185057.5;-0.277;-0.750;9.770;0.001;0.004;0.003;160.2;-31.088;5.194;-61.838;5.0;-32.87788;-60.69754;45.1;0.0
20211011_185058.0;-0.379;-0.740;9.681;0.001;-0.002;0.000;145.1;-32.231;5.213;-61.819;5.0;-32.87788;-60.69754;45.1;0.0
20211011_185058.5;-0.336;-0.788;9.851;-0.000;-0.001;-0.000;145.1;-32.569;6.788;-60.713;5.0;-32.87788;-60.69754;45.1;0.0
20211011_185059.0;-0.351;-0.738;9.734;0.001;0.001;0.001;145.1;-31.538;6.450;-60.750;5.0;-32.87788;-60.69754;45.1;0.0
20211011_185059.5;-0.346;-0.719;9.633;0.002;0.001;-0.001;145.1;-33.206;4.594;-61.481;5.0;-32.87788;-60.69754;45.8;0.0
20211011_185100.0;-0.372;-0.781;9.803;-0.000;-0.002;-0.001;145.1;-33.825;5.869;-61.313;5.0;-32.87788;-60.69754;45.8;0.0
20211011_185100.5;-0.312;-0.762;9.798;-0.001;0.001;0.001;145.1;-31.950;5.513;-61.969;5.0;-32.87788;-60.69754;46.3;0.0
20211011_185101.0;-0.334;-0.724;9.602;0.000;0.001;0.000;145.1;-31.106;5.663;-63.075;5.0;-32.87788;-60.69754;46.3;0.0
20211011_185101.5;-0.377;-0.733;9.614;0.001;0.003;0.001;145.1;-31.706;7.088;-61.369;5.0;-32.87788;-60.69754;46.7;0.0
20211011_185102.0;-0.360;-0.846;9.741;0.000;0.001;0.000;145.1;-32.569;6.788;-62.269;5.0;-32.87788;-60.69754;46.7;0.0
20211011_185102.5;-0.379;-0.767;9.758;0.000;-0.000;-0.000;145.1;-33.000;6.806;-61.013;5.0;-32.87788;-60.69754;46.4;0.0
20211011_185103.0;-0.351;-0.774;9.808;-0.001;-0.001;0.000;145.1;-32.588;7.256;-62.269;5.0;-32.87788;-60.69754;46.4;0.0
20211011_185103.5;-0.329;-0.716;9.635;0.001;0.001;0.001;145.1;-32.531;6.000;-62.269;5.0;-32.87789;-60.69754;45.9;0.0
20211011_185104.0;-0.348;-0.712;9.561;0.001;-0.002;0.000;145.1;-33.131;6.638;-61.631;5.0;-32.87789;-60.69754;45.9;0.0
20211011_185104.5;-0.365;-0.750;9.635;-0.001;-0.000;-0.000;145.1;-32.550;6.788;-60.263;5.0;-32.87789;-60.69754;45.4;0.0
20211011_185105.0;-0.370;-0.788;9.750;-0.000;-0.001;-0.000;145.1;-34.388;5.250;-61.763;5.0;-32.87789;-60.69754;45.5;0.0
20211011_185105.5;-0.348;-0.721;9.616;0.000;-0.002;-0.000;145.1;-32.719;7.106;-61.650;5.0;-32.87789;-60.69754;45.5;0.0
20211011_185106.0;-0.327;-0.748;9.669;-0.000;0.002;0.001;145.1;-32.963;5.700;-62.569;5.0;-32.87789;-60.69754;45.7;0.0
20211011_185106.5;-0.363;-0.748;9.688;0.001;-0.001;0.000;129.7;-32.288;7.256;-60.263;5.0;-32.87789;-60.69754;45.7;0.0
20211011_185107.0;-0.356;-0.757;9.609;0.001;0.002;0.001;116.2;-33.094;5.531;-60.544;5.0;-32.87789;-60.69754;45.8;0.0
20211011_185107.5;-0.303;-0.599;9.458;0.003;-0.002;0.001;105.3;-31.500;4.875;-60.750;5.0;-32.87789;-60.69754;45.8;0.0
20211011_185108.0;-0.291;0.551;9.741;0.007;0.005;0.007;105.3;-33.694;6.488;-60.694;5.0;-32.87789;-60.69754;45.8;0.0
20211011_185108.5;-0.420;1.248;9.935;-0.005;0.005;-0.000;117.6;-32.531;6.000;-60.713;5.0;-32.87789;-60.69754;45.8;0.0
20211011_185109.0;-0.121;1.009;9.810;0.028;0.018;0.009;117.6;-32.531;6.000;-59.944;5.0;-32.87789;-60.69754;45.8;0.0
20211011_185109.5;-0.262;1.147;9.904;-0.004;0.014;-0.001;117.6;-30.938;5.494;-62.006;5.0;-32.87789;-60.69754;45.8;0.0
20211011_185110.0;-0.868;0.194;9.920;0.043;-0.042;-0.007;117.6;-33.075;5.063;-60.075;5.0;-32.87789;-60.69754;45.8;0.0
20211011_185110.5;0.162;-0.812;9.623;-0.017;0.042;0.004;117.6;-32.644;4.744;-60.563;5.0;-32.87789;-60.69754;45.8;0.0
20211011_185111.0;-0.411;0.472;10.278;0.029;-0.006;0.005;117.6;-33.394;5.850;-62.719;5.0;-32.87792;-60.69752;45.8;12.5
20211011_185111.5;-0.849;0.151;10.213;-0.015;-0.006;0.011;117.6;-33.113;5.850;-60.544;5.0;-32.87792;-60.69752;45.8;12.5
20211011_185112.0;0.087;0.029;10.330;0.015;-0.017;-0.010;106.3;-31.725;7.406;-61.988;5.0;-32.87796;-60.69752;45.7;13.6
20211011_185112.5;-0.772;0.306;9.509;-0.032;0.008;-0.000;106.3;-33.394;5.850;-59.306;5.0;-32.87796;-60.69752;45.7;13.6
20211011_185113.0;-0.676;-0.120;10.081;0.045;0.005;0.005;121.2;-33.188;8.231;-61.950;5.0;-32.87800;-60.69751;46.8;17.3
20211011_185113.5;-0.892;0.048;8.220;0.008;-0.076;-0.001;121.2;-35.138;6.525;-60.188;5.0;-32.87800;-60.69751;46.8;17.3
20211011_185114.0;-0.102;-0.012;9.870;0.040;-0.003;0.021;134.7;-32.475;3.788;-63.038;5.0;-32.87808;-60.69753;47.3;19.7
20211011_185114.5;0.049;-0.400;9.801;0.049;0.019;0.018;134.7;-32.513;5.213;-61.800;5.0;-32.87808;-60.69753;47.3;19.7
20211011_185115.0;-0.950;0.357;9.681;0.010;0.014;0.001;122.1;-32.663;5.531;-61.650;5.0;-32.87812;-60.69751;48.2;20.6
20211011_185115.5;-0.820;0.117;10.180;-0.038;-0.023;-0.011;122.1;-33.338;4.275;-60.075;5.0;-32.87812;-60.69751;48.2;20.6
20211011_185116.0;-0.660;0.524;10.445;-0.015;-0.017;0.010;122.1;-31.969;6.300;-62.756;5.0;-32.87818;-60.69748;48.9;22.3
20211011_185116.5;-0.114;0.577;9.647;-0.030;-0.020;-0.011;122.1;-33.656;5.231;-60.994;5.0;-32.87818;-60.69748;48.9;22.3
20211011_185117.0;-0.389;-0.846;9.576;-0.023;-0.008;-0.023;135.9;-33.788;4.763;-60.075;5.0;-32.87825;-60.69747;47.8;26.4
20211011_185117.5;-0.681;-1.591;9.544;-0.003;0.029;0.001;169.0;-35.363;4.950;-59.400;5.0;-32.87825;-60.69747;47.8;26.4
20211011_185118.0;-0.114;-0.060;9.904;0.005;0.051;-0.008;191.1;-32.400;6.319;-60.094;5.0;-32.87831;-60.69743;50.4;26.9
20211011_185118.5;-0.791;-0.499;9.746;0.009;-0.013;-0.000;213.6;-32.213;4.894;-60.263;5.0;-32.87831;-60.69743;50.4;26.9
20211011_185119.0;0.018;-0.415;9.487;-0.030;0.014;0.003;213.6;-31.463;3.769;-58.725;5.0;-32.87838;-60.69743;49.0;28.3
20211011_185120.0;-0.360;0.024;9.837;-0.028;-0.003;0.001;213.6;-32.344;4.725;-60.094;5.0;-32.87838;-60.69743;49.0;28.3
20211011_185120.5;0.274;-0.209;9.444;-0.025;0.019;0.001;213.6;-33.056;4.275;-61.631;5.0;-32.87846;-60.69742;47.9;29.2
20211011_185121.0;-0.063;-0.262;10.692;-0.015;0.017;0.021;174.4;-31.650;0.919;-54.975;5.0;-32.87846;-60.69742;47.9;29.2
20211011_185121.5;-0.777;-0.360;10.093;0.032;0.006;0.005;157.5;-31.763;4.088;-62.288;5.0;-32.87854;-60.69739;48.6;32.1
20211011_185122.0;-0.279;-0.386;9.604;0.005;-0.001;0.015;157.5;-29.456;4.200;-57.844;5.0;-32.87854;-60.69739;48.6;32.1
20211011_185122.5;0.128;-0.257;9.995;0.075;-0.011;0.009;175.0;-31.763;4.088;-58.406;5.0;-32.87863;-60.69737;48.4;33.8
20211011_185123.0;-0.382;-0.153;9.908;0.018;-0.011;-0.005;175.0;-34.088;5.550;-58.969;5.0;-32.87863;-60.69737;48.4;33.8
20211011_185123.5;-0.463;-1.090;10.414;0.026;0.011;0.020;175.0;-32.381;5.831;-60.563;5.0;-32.87872;-60.69734;49.2;35.6
20211011_185124.0;-0.734;-0.290;8.888;-0.069;-0.035;-0.023;175.0;-31.950;5.831;-60.113;5.0;-32.87872;-60.69734;49.2;35.6
20211011_185124.5;-0.056;-0.460;9.583;0.040;0.043;0.011;175.0;-34.013;2.700;-60.825;5.0;-32.87880;-60.69731;49.8;35.7
20211011_185125.0;-0.190;-0.829;10.366;0.100;-0.001;-0.000;195.4;-31.800;5.194;-59.963;5.0;-32.87880;-60.69731;49.8;35.7
20211011_185125.5;-0.035;-0.300;9.413;0.068;-0.031;0.017;220.1;-31.631;4.725;-60.113;5.0;-32.87889;-60.69728;49.9;36.9
20211011_185126.0;-0.212;-0.252;9.693;0.049;-0.045;-0.004;220.1;-30.338;4.538;-62.625;5.0;-32.87889;-60.69728;49.9;36.9
20211011_185126.5;0.202;-0.944;8.031;-0.056;0.017;-0.014;220.1;-32.588;3.150;-60.563;5.0;-32.87897;-60.69724;48.4;37.3
20211011_185127.0;-0.109;-1.028;9.398;-0.087;0.009;-0.011;220.1;-33.094;5.531;-59.775;5.0;-32.87897;-60.69724;48.4;37.3
20211011_185127.5;-0.636;0.778;9.097;-0.036;-0.014;0.008;220.1;-32.213;4.894;-60.731;5.0;-32.87905;-60.69719;43.4;36.8
20211011_185128.0;0.169;-0.175;9.288;0.004;-0.081;0.007;220.1;-33.319;3.488;-58.519;5.0;-32.87905;-60.69719;43.4;36.8
20211011_185128.5;-0.722;-0.477;10.620;-0.024;0.063;0.023;220.1;-32.325;3.469;-61.331;5.0;-32.87915;-60.69716;44.4;38.7
20211011_185129.0;-0.399;-0.300;11.284;0.025;0.009;0.017;220.1;-33.750;3.488;-60.525;5.0;-32.87915;-60.69716;44.4;38.7
20211011_185129.5;-0.931;0.937;9.128;-0.086;0.002;0.025;220.1;-32.663;5.531;-60.863;5.0;-32.87924;-60.69713;44.8;41.0
20211011_185130.0;-0.873;0.366;8.387;-0.041;-0.011;0.012;244.9;-33.394;5.550;-61.313;5.0;-32.87924;-60.69713;44.8;41.0
20211011_185130.5;-1.386;-0.424;7.788;-0.027;-0.008;-0.000;244.9;-33.394;5.550;-61.931;5.0;-32.87935;-60.69710;44.0;43.7
20211011_185131.0;-0.040;-0.946;10.249;0.016;0.030;0.009;244.9;-34.463;3.506;-60.506;5.0;-32.87935;-60.69710;44.0;43.7
20211011_185131.5;-0.245;-0.894;9.319;-0.017;-0.000;-0.011;244.9;-33.244;5.700;-61.013;5.0;-32.87946;-60.69706;44.9;45.6
20211011_185132.0;0.042;-0.937;11.202;0.072;-0.018;-0.016;244.9;-33.338;4.275;-58.988;5.0;-32.87946;-60.69706;44.9;45.6
20211011_185132.5;0.013;-0.930;10.481;0.021;-0.015;-0.015;244.9;-34.875;7.781;-59.738;5.0;-32.87957;-60.69702;44.9;45.1
20211011_185133.0;0.936;-1.021;10.924;-0.005;-0.005;-0.010;244.9;-33.113;5.850;-59.775;5.0;-32.87957;-60.69702;44.9;45.1
20211011_185133.5;-0.786;-0.633;9.272;-0.131;-0.013;0.000;244.9;-33.638;4.594;-60.225;5.0;-32.87968;-60.69698;45.6;46.2
20211011_185134.0;-0.298;-0.630;9.051;-0.053;-0.013;-0.006;219.5;-32.700;6.638;-61.650;5.0;-32.87968;-60.69698;45.6;46.2
20211011_185134.5;-0.260;-0.427;10.172;-0.015;-0.066;-0.011;219.5;-33.019;7.594;-60.244;5.0;-32.87979;-60.69695;45.6;47.0
20211011_185135.0;-0.080;-0.580;9.360;0.017;-0.036;-0.011;219.5;-33.225;4.913;-60.694;5.0;-32.87979;-60.69695;45.6;47.0
20211011_185135.5;-0.372;-0.975;9.272;0.028;0.036;0.005;219.5;-32.250;6.000;-58.706;5.0;-32.87991;-60.69691;45.9;47.7
20211011_185136.0;-0.600;-0.463;10.040;0.076;-0.035;-0.011;219.5;-31.988;7.088;-60.881;5.0;-32.87991;-60.69691;45.9;47.7
20211011_185136.5;0.142;-1.732;11.075;0.035;0.034;0.004;219.5;-31.125;6.769;-60.750;5.0;-32.88003;-60.69688;46.2;47.4
20211011_185137.0;0.119;-1.656;10.321;-0.025;0.016;-0.006;219.5;-31.238;5.813;-62.456;5.0;-32.88003;-60.69688;46.2;47.4
20211011_185137.5;-0.274;-1.490;9.322;-0.016;0.020;0.011;219.5;-31.125;6.450;-61.538;5.0;-32.88014;-60.69686;45.1;45.5
20211011_185138.0;-0.492;-2.087;10.792;0.023;0.036;0.004;198.3;-31.163;3.450;-60.131;5.0;-32.88014;-60.69686;45.1;45.5
20211011_185138.5;-0.214;-2.259;9.456;0.008;0.004;-0.000;198.3;-32.625;4.256;-60.863;5.0;-32.88025;-60.69682;45.3;42.9
20211011_185139.0;-0.731;-1.926;9.904;-0.023;-0.001;-0.004;198.3;-33.375;5.063;-60.075;5.0;-32.88025;-60.69682;45.3;42.9
20211011_185139.5;-0.631;-2.338;9.999;-0.087;0.018;-0.026;198.3;-31.575;7.556;-59.194;5.0;-32.88034;-60.69679;43.6;38.4
20211011_185140.0;-0.895;-2.254;9.523;0.007;-0.047;-0.001;198.3;-32.213;4.575;-60.731;5.0;-32.88034;-60.69679;43.6;38.4
20211011_185140.5;-0.717;-2.458;8.936;-0.038;0.021;-0.012;198.3;-31.669;5.831;-60.581;5.0;-32.88043;-60.69677;44.7;33.0
20211011_185141.0;-0.439;-1.593;9.497;-0.019;0.050;0.006;198.3;-31.781;4.875;-59.963;5.0;-32.88043;-60.69677;44.7;33.0
20211011_185141.5;-0.657;-2.158;9.683;-0.008;0.002;-0.015;198.3;-31.238;5.513;-60.600;5.0;-32.88050;-60.69676;45.1;29.1
20211011_185142.0;-0.664;-1.006;10.302;-0.058;-0.035;0.008;178.7;-31.594;3.450;-59.344;5.0;-32.88050;-60.69676;45.1;29.1
20211011_185142.5;-0.408;-1.193;10.280;-0.017;-0.002;0.023;178.7;-30.544;6.600;-60.919;5.0;-32.88057;-60.69674;45.5;25.1
20211011_185143.0;-0.712;-1.660;9.863;0.035;-0.024;0.006;178.7;-32.700;6.638;-59.325;5.0;-32.88057;-60.69674;45.5;25.1
20211011_185143.5;-0.593;-1.703;8.933;-0.017;-0.036;-0.004;178.7;-31.650;5.513;-59.025;5.0;-32.88063;-60.69673;45.1;23.0
20211011_185144.0;-0.664;-1.696;8.663;0.039;-0.070;-0.008;178.7;-32.231;5.213;-61.031;5.0;-32.88063;-60.69673;45.1;23.0
20211011_185144.5;-0.557;-1.289;9.102;0.029;-0.012;-0.001;178.7;-31.519;5.663;-60.750;5.0;-32.88069;-60.69672;45.9;19.6
20211011_185145.0;-0.408;-0.965;8.969;0.001;0.033;-0.000;178.7;-32.400;6.319;-61.650;5.0;-32.88069;-60.69672;45.9;19.6
20211011_185145.5;-0.035;-0.937;9.133;0.007;0.035;0.002;178.7;-32.213;5.213;-58.388;5.0;-32.88073;-60.69670;45.7;17.6
20211011_185146.0;-0.241;-0.963;10.189;-0.019;0.029;-0.005;178.7;-32.381;5.831;-60.881;5.0;-32.88073;-60.69670;45.7;17.6
20211011_185146.5;-0.219;-1.315;10.282;0.021;0.022;-0.000;178.7;-33.094;5.531;-61.331;5.0;-32.88077;-60.69668;45.5;17.0
20211011_185147.0;-0.554;-1.217;10.271;-0.000;0.019;0.003;178.7;-32.344;4.256;-60.563;5.0;-32.88077;-60.69668;45.5;17.0
20211011_185147.5;-0.226;-0.860;9.585;0.000;-0.004;0.000;178.7;-30.581;2.963;-60.300;5.0;-32.88081;-60.69667;46.6;15.4
20211011_185148.0;-0.090;-1.004;9.973;-0.010;-0.004;0.001;178.7;-31.556;6.769;-59.963;5.0;-32.88081;-60.69667;46.6;15.4
20211011_185148.5;-0.523;-0.616;9.616;0.007;-0.021;-0.007;178.7;-31.463;3.769;-60.281;5.0;-32.88085;-60.69666;46.4;14.7
20211011_185149.0;-0.791;-0.961;9.765;0.005;-0.022;-0.003;159.5;-31.556;6.769;-59.194;5.0;-32.88085;-60.69666;46.4;14.7
20211011_185149.5;-0.602;-0.396;9.205;0.051;-0.005;0.006;159.5;-31.800;5.194;-59.963;5.0;-32.88088;-60.69665;46.2;14.6
20211011_185150.0;-0.274;0.670;9.343;-0.037;-0.013;0.007;144.7;-31.200;4.706;-59.813;5.0;-32.88088;-60.69665;46.2;14.6
20211011_185150.5;-0.028;1.219;9.382;0.030;0.001;0.001;144.7;-31.819;5.981;-61.050;5.0;-32.88092;-60.69663;46.3;17.0
20211011_185151.0;-0.415;0.891;8.644;-0.007;0.001;0.008;144.7;-31.988;7.088;-60.881;5.0;-32.88092;-60.69663;46.3;17.0
20211011_185151.5;-0.267;1.068;10.259;0.008;-0.002;0.006;144.7;-30.919;4.706;-60.900;5.0;-32.88097;-60.69662;46.7;22.5
20211011_185152.0;-0.413;-1.562;10.052;-0.004;-0.011;-0.003;144.7;-32.175;3.300;-60.263;5.0;-32.88097;-60.69662;46.7;22.5
20211011_185152.5;-0.317;-0.542;9.370;-0.084;-0.000;-0.003;161.4;-32.213;4.575;-59.944;5.0;-32.88104;-60.69660;46.9;27.9
20211011_185153.0;-0.114;0.462;9.331;-0.008;0.017;-0.003;181.6;-31.238;5.813;-59.044;5.0;-32.88104;-60.69660;46.9;27.9
20211011_185153.5;-0.183;-0.053;10.546;0.018;0.010;0.015;181.6;-31.463;3.769;-59.963;5.0;-32.88110;-60.69658;47.3;28.8
20211011_185154.0;-0.379;0.278;9.363;-0.033;0.009;-0.007;202.2;-31.763;4.088;-60.731;5.0;-32.88110;-60.69658;47.3;28.8
20211011_185154.5;0.109;-0.091;9.200;-0.060;-0.038;-0.019;202.2;-31.256;6.600;-59.044;5.0;-32.88117;-60.69655;47.9;31.9
20211011_185155.0;-0.162;-0.266;9.731;-0.017;-0.015;0.002;182.0;-31.950;5.513;-60.881;5.0;-32.88117;-60.69655;47.9;31.9
20211011_185155.5;-0.372;-0.391;10.014;0.023;-0.004;-0.006;182.0;-32.963;6.000;-58.388;5.0;-32.88125;-60.69653;45.0;34.7
20211011_185156.0;-0.377;-0.767;8.847;-0.025;-0.053;-0.009;182.0;-32.644;4.744;-60.563;5.0;-32.88125;-60.69653;45.0;34.7
20211011_185156.5;-0.612;-0.069;10.285;-0.030;0.031;-0.003;182.0;-32.906;4.106;-61.013;5.0;-32.88134;-60.69649;45.5;36.1
20211011_185157.0;0.327;-0.259;9.837;-0.014;0.027;-0.000;204.2;-31.519;5.663;-59.194;5.0;-32.88134;-60.69649;45.5;36.1
20211011_185157.5;0.073;-0.134;9.774;-0.036;-0.024;-0.013;204.2;-32.231;5.213;-60.263;5.0;-32.88143;-60.69646;46.0;37.5
20211011_185158.0;-0.303;-0.300;9.904;-0.061;-0.010;-0.001;227.5;-33.375;5.063;-59.756;5.0;-32.88143;-60.69646;46.0;37.5
20211011_185158.5;-0.696;-0.489;9.382;-0.070;-0.029;-0.009;227.5;-31.556;6.769;-59.194;5.0;-32.88152;-60.69644;43.6;39.3
20211011_185159.0;-0.998;-0.554;10.455;0.029;-0.018;0.009;227.5;-32.644;5.063;-60.563;5.0;-32.88152;-60.69644;43.6;39.3
20211011_185159.5;-0.004;-0.760;8.900;-0.079;-0.014;0.009;253.0;-32.625;4.256;-58.538;5.0;-32.88162;-60.69641;44.4;41.4
20211011_185200.0;-1.307;-0.546;9.389;0.008;-0.052;0.000;253.0;-32.513;5.213;-60.244;5.0;-32.88172;-60.69637;44.1;42.6
20211011_185200.5;-0.609;-0.338;9.504;-0.034;0.034;-0.005;253.0;-35.156;2.719;-58.950;5.0;-32.88172;-60.69637;44.1;42.6
20211011_185201.0;-0.470;-0.736;10.016;-0.023;-0.004;0.001;253.0;-32.888;3.319;-59.925;5.0;-32.88183;-60.69634;43.5;42.5
20211011_185201.5;-1.170;-0.305;11.574;-0.010;-0.028;-0.022;253.0;-33.113;5.850;-61.950;5.0;-32.88183;-60.69634;43.5;42.5
20211011_185202.0;0.054;-0.103;9.674;0.002;0.042;0.026;253.0;-31.800;5.663;-60.263;5.0;-32.88193;-60.69630;43.8;44.1
20211011_185202.5;-0.739;-0.640;8.510;-0.086;-0.033;-0.017;253.0;-32.625;4.256;-59.306;5.0;-32.88193;-60.69630;43.8;44.1
20211011_185203.0;-0.107;-0.321;9.085;-0.068;-0.011;-0.014;253.0;-33.113;5.850;-61.631;5.0;-32.88204;-60.69628;43.9;45.1
20211011_185203.5;-0.312;-0.479;9.487;-0.145;0.045;0.001;253.0;-31.163;3.450;-59.344;5.0;-32.88204;-60.69628;43.9;45.1
20211011_185204.0;-0.044;0.218;9.753;-0.054;-0.011;-0.020;253.0;-31.969;6.300;-61.969;5.0;-32.88216;-60.69625;44.9;45.6
20211011_185204.5;-0.482;-1.009;8.105;-0.070;0.038;-0.001;253.0;-32.231;5.213;-60.263;5.0;-32.88216;-60.69625;44.9;45.6
20211011_185205.0;-0.327;-0.894;9.346;-0.019;-0.045;-0.017;228.5;-30.919;4.706;-60.900;5.0;-32.88227;-60.69621;44.6;46.5
20211011_185205.5;0.226;-1.277;9.516;0.012;0.021;0.011;205.2;-32.213;4.894;-60.263;5.0;-32.88227;-60.69621;44.6;46.5
20211011_185206.0;-1.029;0.031;9.923;-0.058;0.007;0.020;205.2;-32.494;4.894;-59.944;5.0;-32.88238;-60.69619;45.4;46.8
20211011_185206.5;-0.549;-0.432;10.218;-0.099;-0.029;0.004;205.2;-31.969;6.300;-61.969;5.0;-32.88238;-60.69619;45.4;46.8
20211011_185207.0;-0.322;-0.432;10.275;-0.062;0.064;0.035;184.4;-32.231;5.213;-61.500;5.0;-32.88250;-60.69615;46.2;48.1
20211011_185207.5;-0.401;-0.069;8.354;-0.103;0.013;-0.002;165.4;-33.975;6.019;-60.994;5.0;-32.88250;-60.69615;46.2;48.1
20211011_185208.0;0.126;-0.446;7.957;0.023;0.019;0.015;165.4;-31.575;2.663;-60.113;5.0;-32.88262;-60.69612;46.0;49.0
20211011_185208.5;-0.324;-0.326;10.163;0.018;-0.030;-0.021;186.8;-33.319;3.488;-59.756;5.0;-32.88262;-60.69612;46.0;49.0
20211011_185209.0;0.433;-0.874;5.544;-0.132;0.023;0.004;208.7;-33.356;4.744;-60.844;5.0;-32.88274;-60.69608;46.3;49.4
20211011_185209.5;0.519;-1.250;10.035;0.002;0.086;0.009;233.3;-30.488;4.706;-60.600;5.0;-32.88274;-60.69608;46.3;49.4
20211011_185210.0;-0.128;-1.378;9.035;0.067;0.020;0.007;233.3;-32.194;4.106;-59.475;5.0;-32.88285;-60.69604;45.4;48.5
20211011_185210.5;-1.594;-1.565;10.347;0.075;-0.007;0.005;206.5;-32.513;5.213;-59.475;5.0;-32.88285;-60.69604;45.4;48.5
20211011_185211.0;-0.803;-0.774;9.894;0.121;-0.081;0.011;163.9;-31.819;5.981;-61.050;5.0;-32.88297;-60.69601;46.3;47.2
20211011_185211.5;0.928;-0.855;7.954;0.016;0.005;-0.025;163.9;-33.094;5.531;-60.075;5.0;-32.88297;-60.69601;46.3;47.2
20211011_185212.0;1.012;-1.133;9.750;0.040;0.067;0.009;163.9;-32.944;4.894;-61.800;5.0;-32.88309;-60.69599;44.9;46.2
20211011_185212.5;-1.496;-1.486;10.745;0.038;0.010;0.023;184.5;-31.988;6.619;-61.669;5.0;-32.88309;-60.69599;44.9;46.2
20211011_185213.0;-0.497;-1.433;9.652;-0.097;0.028;0.013;206.9;-31.481;4.556;-59.963;5.0;-32.88320;-60.69596;44.2;44.9
20211011_185213.5;0.109;-0.700;10.539;-0.017;-0.017;-0.001;230.3;-32.213;4.575;-59.944;5.0;-32.88320;-60.69596;44.2;44.9
20211011_185214.0;-0.578;-1.080;9.726;-0.088;-0.012;-0.001;230.3;-33.694;6.488;-60.225;5.0;-32.88330;-60.69592;44.0;44.1
20211011_185214.5;-0.135;-1.320;9.698;-0.085;0.006;-0.023;230.3;-32.494;4.575;-61.031;5.0;-32.88330;-60.69592;44.0;44.1
20211011_185215.0;-0.071;-1.080;9.434;-0.123;-0.050;-0.040;230.3;-33.225;4.913;-61.481;5.0;-32.88341;-60.69589;44.3;44.0
20211011_185216.0;-0.585;-1.347;9.815;-0.066;0.009;-0.011;230.3;-31.725;7.406;-61.369;5.0;-32.88341;-60.69589;44.3;44.0
20211011_185216.5;-0.289;-1.083;9.635;-0.110;0.005;0.003;209.1;-31.950;5.831;-60.881;5.0;-32.88352;-60.69585;44.4;43.7
20211011_185217.0;0.116;-1.354;9.547;-0.107;0.012;0.011;188.8;-33.113;5.850;-60.075;5.0;-32.88352;-60.69585;44.4;43.7
20211011_185217.5;-0.547;-1.052;9.937;-0.106;-0.035;0.006;188.8;-32.963;5.700;-60.713;5.0;-32.88362;-60.69581;45.3;43.1
20211011_185218.0;-0.126;-0.666;11.478;-0.071;0.025;0.015;171.2;-32.925;4.594;-61.481;5.0;-32.88362;-60.69581;45.3;43.1
20211011_185218.5;-0.130;-1.133;8.385;-0.139;-0.005;-0.012;171.2;-32.625;4.256;-60.094;5.0;-32.88373;-60.69578;46.2;43.2
20211011_185219.0;0.248;-0.733;9.185;-0.002;0.011;-0.028;171.2;-31.781;4.875;-61.050;5.0;-32.88373;-60.69578;46.2;43.2
20211011_185219.5;-0.470;-0.274;9.669;-0.042;0.027;0.017;191.0;-30.956;5.813;-60.131;5.0;-32.88383;-60.69574;46.7;42.7
20211011_185220.0;-0.126;-1.627;9.918;-0.048;-0.066;-0.006;213.3;-32.906;3.788;-60.713;5.0;-32.88383;-60.69574;46.7;42.7
20211011_185220.5;0.281;-1.703;10.026;-0.063;0.048;-0.020;213.3;-32.475;4.106;-60.244;5.0;-32.88393;-60.69571;46.5;41.6
20211011_185221.0;0.202;-0.970;9.178;-0.077;-0.048;-0.013;192.1;-32.438;3.000;-59.475;5.0;-32.88393;-60.69571;46.5;41.6
20211011_185221.5;-0.025;-0.846;9.724;-0.154;-0.017;-0.044;174.5;-29.625;4.838;-59.550;5.0;-32.88403;-60.69567;46.5;40.9
20211011_185222.0;-0.600;-0.434;9.456;-0.081;-0.038;-0.011;196.1;-33.075;5.063;-59.306;5.0;-32.88403;-60.69567;46.5;40.9
20211011_185222.5;0.243;-1.335;11.507;-0.068;-0.022;-0.007;196.1;-32.194;4.106;-61.031;5.0;-32.88413;-60.69564;47.1;41.0
20211011_185223.0;-0.339;-1.255;10.002;-0.022;0.029;0.003;220.0;-31.519;5.663;-61.519;5.0;-32.88413;-60.69564;47.1;41.0
20211011_185223.5;-0.940;-0.247;10.615;0.060;-0.025;-0.028;220.0;-32.231;5.681;-60.731;5.0;-32.88423;-60.69561;46.9;40.9
20211011_185224.0;0.202;-0.417;9.602;0.046;-0.031;-0.016;220.0;-31.950;5.513;-61.669;5.0;-32.88423;-60.69561;46.9;40.9
20211011_185224.5;-1.455;-0.841;10.546;0.005;-0.093;-0.024;220.0;-33.225;4.913;-60.694;5.0;-32.88433;-60.69558;47.5;41.7
20211011_185225.0;-0.569;-0.965;9.626;-0.020;0.030;-0.001;244.5;-31.613;3.938;-60.900;5.0;-32.88433;-60.69558;47.5;41.7
20211011_185225.5;-0.830;-0.910;10.345;-0.026;0.062;-0.005;244.5;-32.194;4.575;-59.475;5.0;-32.88443;-60.69555;47.3;42.7
20211011_185226.0;1.175;0.426;9.063;-0.006;0.021;0.048;219.7;-33.938;4.594;-60.225;5.0;-32.88443;-60.69555;47.3;42.7
20211011_185226.5;-0.729;0.177;8.692;0.028;0.004;-0.011;196.4;-31.650;5.044;-60.581;5.0;-32.88454;-60.69552;47.3;44.3
20211011_185227.0;-0.772;0.038;9.147;0.034;0.025;-0.007;176.2;-33.750;3.488;-61.613;5.0;-32.88454;-60.69552;47.3;44.3
20211011_185227.5;-0.382;-0.180;10.047;0.092;-0.033;-0.029;176.2;-32.194;4.106;-59.475;5.0;-32.88465;-60.69549;47.0;45.9
20211011_185228.0;1.702;-0.153;10.019;0.012;-0.047;-0.041;176.2;-31.613;4.238;-59.025;5.0;-32.88465;-60.69549;47.0;45.9
20211011_185228.5;0.286;-0.365;9.755;0.128;-0.045;-0.006;176.2;-33.113;5.850;-61.331;5.0;-32.88476;-60.69545;47.4;47.4
20211011_185229.0;0.713;-0.400;8.543;0.052;-0.107;0.002;176.2;-30.938;5.494;-60.919;5.0;-32.88476;-60.69545;47.4;47.4
20211011_185229.5;0.004;-0.592;9.571;-0.005;-0.042;0.023;176.2;-31.669;5.831;-60.900;5.0;-32.88488;-60.69542;47.2;48.4
20211011_185230.0;-0.760;-0.997;10.745;0.048;0.032;0.009;199.0;-32.194;4.106;-60.263;5.0;-32.88488;-60.69542;47.2;48.4
20211011_185230.5;-0.880;-1.229;11.698;0.075;-0.001;0.001;199.0;-32.381;5.531;-60.094;5.0;-32.88499;-60.69537;46.6;48.9
20211011_185231.0;0.983;-1.305;11.253;0.078;-0.015;-0.003;199.0;-31.219;5.494;-59.044;5.0;-32.88499;-60.69537;46.6;48.9
20211011_185231.5;0.233;-1.090;9.963;-0.047;0.005;-0.033;199.0;-33.806;5.081;-60.075;5.0;-32.88511;-60.69534;47.4;48.3
20211011_185232.0;-0.186;-0.513;9.908;-0.030;0.020;-0.007;179.7;-31.519;5.194;-61.519;5.0;-32.88511;-60.69534;47.4;48.3
20211011_185232.5;0.342;-0.453;9.669;-0.001;0.078;0.019;179.7;-32.663;5.531;-60.863;5.0;-32.88523;-60.69530;47.4;47.8
20211011_185233.0;-0.317;-0.266;11.918;0.084;0.022;0.012;179.7;-32.194;4.106;-61.031;5.0;-32.88523;-60.69530;47.4;47.8
20211011_185233.5;-0.549;-0.745;10.943;-0.009;-0.027;-0.007;179.7;-32.381;5.831;-60.563;5.0;-32.88535;-60.69527;47.2;48.5
20211011_185234.0;-0.461;-0.199;8.481;-0.106;-0.022;-0.000;199.9;-32.194;3.788;-61.500;5.0;-32.88535;-60.69527;47.2;48.5
20211011_185234.5;-0.528;-0.683;9.985;-0.094;-0.027;-0.004;222.8;-32.944;5.213;-61.013;5.0;-32.88547;-60.69523;47.4;48.7
20211011_185235.0;-0.691;-0.932;9.717;-0.014;-0.012;-0.014;251.9;-31.481;4.088;-60.731;5.0;-32.88547;-60.69523;47.4;48.7
20211011_185235.5;0.075;-0.822;9.573;-0.020;0.030;-0.008;251.9;-31.088;5.663;-60.750;5.0;-32.88558;-60.69520;47.8;48.1
20211011_185236.0;-0.147;-0.930;10.244;-0.014;-0.001;-0.005;251.9;-32.156;3.000;-59.475;5.0;-32.88558;-60.69520;47.8;48.1
20211011_185236.5;0.269;-0.910;11.183;0.035;0.015;0.002;280.1;-31.613;3.938;-61.350;5.0;-32.88570;-60.69517;46.6;47.0
20211011_185237.0;-0.578;-0.815;10.078;0.015;0.010;0.003;280.1;-31.650;5.044;-61.669;5.0;-32.88570;-60.69517;46.6;47.0
20211011_185237.5;-0.260;-0.819;8.471;-0.076;0.047;0.009;280.1;-31.763;4.088;-61.050;5.0;-32.88581;-60.69514;46.5;46.5
20211011_185238.0;-0.298;-0.700;9.944;-0.057;0.057;-0.008;254.0;-30.263;2.175;-60.300;5.0;-32.88581;-60.69514;46.5;46.5
20211011_185238.5;-0.281;-0.460;10.323;0.014;-0.009;-0.007;228.6;-32.494;4.575;-60.244;5.0;-32.88593;-60.69511;46.8;46.3
20211011_185239.0;0.207;0.079;9.173;-0.102;0.031;0.004;228.6;-33.338;4.275;-59.756;5.0;-32.88593;-60.69511;46.8;46.3
20211011_185239.5;0.095;-0.079;8.651;-0.035;-0.043;-0.001;255.7;-31.669;5.831;-60.113;5.0;-32.88604;-60.69507;46.7;47.1
20211011_185240.0;0.323;-0.221;8.378;0.017;-0.021;0.002;255.7;-32.344;4.725;-59.006;5.0;-32.88604;-60.69507;46.7;47.1
20211011_185240.5;-1.149;-0.276;9.260;0.022;0.014;-0.004;255.7;-32.925;4.894;-60.713;5.0;-32.88616;-60.69504;46.8;48.3
20211011_185241.0;-1.012;-0.503;10.103;0.030;-0.044;-0.014;255.7;-30.806;1.538;-56.719;5.0;-32.88616;-60.69504;46.8;48.3
20211011_185241.5;-0.356;0.273;10.560;0.097;-0.006;-0.011;255.7;-31.200;4.706;-60.600;5.0;-32.88628;-60.69501;47.1;49.5
20211011_185242.0;-0.847;-0.134;10.215;0.030;-0.036;-0.008;255.7;-33.581;3.019;-57.113;5.0;-32.88628;-60.69501;47.1;49.5
20211011_185242.5;0.335;-0.894;11.144;0.020;-0.006;0.003;231.7;-31.931;5.044;-60.581;5.0;-32.88641;-60.69497;47.3;51.0
20211011_185243.0;-0.130;-0.633;10.009;0.054;0.004;-0.003;231.7;-32.325;3.469;-61.331;5.0;-32.88641;-60.69497;47.3;51.0
20211011_185243.5;0.061;-0.446;9.674;-0.056;-0.014;-0.011;231.7;-30.975;6.281;-60.919;5.0;-32.88653;-60.69493;47.7;51.9
20211011_185244.0;-0.068;-0.927;9.020;-0.070;0.037;0.001;231.7;-31.931;5.044;-61.350;5.0;-32.88653;-60.69493;47.7;51.9
20211011_185244.5;-0.255;-0.774;10.086;0.040;0.021;-0.005;210.1;-30.900;4.238;-60.600;5.0;-32.88666;-60.69489;47.9;52.6
20211011_185245.0;-0.286;-1.009;9.779;0.021;0.026;0.016;210.1;-31.669;5.513;-60.581;5.0;-32.88666;-60.69489;47.9;52.6
20211011_185245.5;-0.605;-0.475;9.454;-0.001;0.063;0.002;210.1;-32.644;4.744;-60.863;5.0;-32.88678;-60.69485;47.3;51.9
20211011_185246.0;-0.753;-0.714;9.556;-0.039;0.001;-0.017;190.2;-32.531;6.000;-61.031;5.0;-32.88678;-60.69485;47.3;51.9
20211011_185246.5;-0.724;-0.189;8.445;-0.042;-0.017;-0.008;170.6;-32.644;5.063;-60.863;5.0;-32.88691;-60.69481;47.5;51.9
20211011_185247.0;-0.188;-0.554;8.490;0.025;0.029;0.001;170.6;-33.788;4.763;-61.613;5.0;-32.88691;-60.69481;47.5;51.9
20211011_185247.5;-0.224;-0.448;8.083;0.015;0.015;0.004;170.6;-32.363;4.725;-61.350;5.0;-32.88704;-60.69478;47.6;51.6
20211011_185248.0;0.775;-0.566;10.989;0.077;-0.038;-0.031;170.6;-31.669;5.831;-60.900;5.0;-32.88704;-60.69478;47.6;51.6
20211011_185248.5;-0.868;-0.388;10.510;-0.043;0.017;0.009;170.6;-33.338;4.275;-59.756;5.0;-32.88717;-60.69474;48.1;52.4
20211011_185249.0;-0.145;-0.479;11.123;-0.028;-0.062;-0.048;170.6;-31.669;5.831;-59.025;5.0;-32.88717;-60.69474;48.1;52.4
20211011_185249.5;-0.628;-1.159;10.014;0.047;-0.022;0.007;190.7;-32.363;5.044;-59.794;5.0;-32.88729;-60.69471;48.7;52.8
20211011_185250.0;0.152;-0.793;9.353;0.005;-0.022;0.020;212.7;-33.394;5.550;-61.313;5.0;-32.88729;-60.69471;48.7;52.8
20211011_185250.5;-0.147;-0.148;9.358;0.056;0.069;0.020;212.7;-30.638;4.538;-61.538;5.0;-32.88742;-60.69467;48.6;52.6
20211011_185251.0;-1.290;-0.108;7.499;-0.109;0.028;-0.019;237.4;-32.644;5.063;-60.094;5.0;-32.88742;-60.69467;48.6;52.6
20211011_185251.5;-0.914;-1.459;8.960;-0.014;-0.051;0.006;237.4;-32.606;3.150;-61.650;5.0;-32.88755;-60.69463;47.3;53.0
20211011_185252.0;0.037;-0.649;8.766;0.024;0.034;0.028;237.4;-32.344;4.256;-60.881;5.0;-32.88755;-60.69463;47.3;53.0
20211011_185252.5;-0.786;-1.013;10.745;0.069;-0.035;0.015;212.6;-30.488;5.025;-60.150;5.0;-32.88768;-60.69460;47.2;53.3
20211011_185253.0;-0.071;-0.714;9.767;0.005;-0.003;-0.031;172.8;-31.894;3.938;-61.350;5.0;-32.88768;-60.69460;47.2;53.3
20211011_185253.5;-0.904;-0.879;10.929;0.033;0.030;0.029;172.8;-31.781;4.875;-59.963;5.0;-32.88780;-60.69456;45.8;53.2
20211011_185254.0;-0.205;-0.958;9.406;0.021;0.017;-0.012;172.8;-32.213;4.894;-60.263;5.0;-32.88780;-60.69456;45.8;53.2
20211011_185254.5;-0.078;-0.942;12.146;0.017;-0.030;-0.005;172.8;-32.531;6.000;-61.031;5.0;-32.88793;-60.69452;45.3;52.7
20211011_185255.0;-0.245;-0.305;10.515;0.013;-0.002;-0.001;172.8;-30.675;5.963;-61.069;5.0;-32.88793;-60.69452;45.3;52.7
20211011_185255.5;-0.767;-1.035;10.285;-0.132;0.036;0.025;172.8;-33.225;4.913;-59.156;5.0;-32.88806;-60.69448;45.9;52.9
20211011_185256.0;-0.396;-0.645;10.476;-0.048;-0.004;0.001;172.8;-30.638;4.856;-61.538;5.0;-32.88806;-60.69448;45.9;52.9
20211011_185256.5;-0.897;-0.927;11.519;0.003;-0.027;0.003;172.8;-31.538;5.981;-60.281;5.0;-32.88819;-60.69444;44.6;53.1
20211011_185257.0;0.233;-0.685;10.618;0.079;0.045;0.036;195.4;-31.781;4.556;-60.263;5.0;-32.88819;-60.69444;44.6;53.1
20211011_185257.5;-0.583;-0.259;8.390;0.026;-0.012;-0.014;221.9;-32.663;5.531;-59.775;5.0;-32.88832;-60.69440;44.6;53.1
20211011_185258.0;-0.437;-0.647;9.442;-0.012;-0.023;0.004;247.6;-33.975;6.019;-60.994;5.0;-32.88832;-60.69440;44.6;53.1
20211011_185258.5;-0.365;-0.305;10.424;0.012;-0.023;0.027;247.6;-32.513;5.213;-60.244;5.0;-32.88844;-60.69436;44.2;53.1
20211011_185259.0;-0.332;-0.879;11.396;-0.039;0.050;0.009;247.6;-31.538;6.450;-59.494;5.0;-32.88844;-60.69436;44.2;53.1
20211011_185259.5;-0.727;-0.470;10.066;0.035;0.006;0.003;247.6;-32.231;5.213;-60.731;5.0;-32.88857;-60.69431;44.4;53.3
20211011_185300.0;-0.628;-1.097;8.735;-0.006;-0.031;-0.032;247.6;-33.375;5.063;-60.844;5.0;-32.88857;-60.69431;44.4;53.3
20211011_185300.5;-0.425;0.136;9.178;-0.059;-0.018;0.005;247.6;-33.731;2.700;-58.519;5.0;-32.88871;-60.69427;45.6;54.5
20211011_185301.0;-0.919;-0.012;10.388;0.100;0.009;-0.001;247.6;-31.538;5.981;-60.750;5.0;-32.88871;-60.69427;45.6;54.5
20211011_185301.5;-0.478;-1.073;9.894;0.058;0.081;0.021;247.6;-31.819;5.981;-61.819;5.0;-32.88884;-60.69423;44.9;55.4
20211011_185302.0;-0.907;-1.032;9.861;0.023;0.053;0.032;219.0;-31.913;4.256;-60.113;5.0;-32.88884;-60.69423;44.9;55.4
20211011_185302.5;-0.142;-0.446;8.850;0.061;0.043;0.011;193.6;-31.894;3.938;-60.881;5.0;-32.88897;-60.69418;46.2;55.6
20211011_185303.0;-0.784;-1.622;10.304;0.072;-0.018;0.006;173.2;-32.644;4.744;-60.863;5.0;-32.88897;-60.69418;46.2;55.6
20211011_185303.5;0.224;-0.977;9.679;0.012;0.079;-0.003;173.2;-31.969;6.300;-60.581;5.0;-32.88911;-60.69414;45.6;55.3
20211011_185304.0;0.366;-0.745;8.694;-0.050;0.071;0.013;194.3;-31.913;4.256;-60.881;5.0;-32.88911;-60.69414;45.6;55.3
20211011_185304.5;-0.130;-0.592;9.334;-0.055;-0.071;0.006;194.3;-33.656;4.913;-60.225;5.0;-32.88924;-60.69409;44.8;54.8
20211011_185305.0;0.209;-0.824;9.990;0.003;-0.009;-0.010;194.3;-32.231;5.681;-59.175;5.0;-32.88924;-60.69409;44.8;54.8
20211011_185305.5;-0.986;-0.568;9.482;0.034;0.081;0.005;194.3;-30.506;5.494;-59.363;5.0;-32.88937;-60.69405;44.7;55.0
20211011_185306.0;0.519;-0.769;11.308;-0.011;0.045;0.022;194.3;-32.944;5.213;-61.800;5.0;-32.88950;-60.69400;44.4;54.6
20211011_185306.5;-0.593;-0.949;7.985;-0.003;-0.015;0.009;174.8;-32.213;4.894;-61.500;5.0;-32.88950;-60.69400;44.4;54.6
20211011_185307.0;-0.748;-0.920;10.388;0.049;0.045;0.013;156.5;-30.619;4.538;-61.069;5.0;-32.88963;-60.69396;44.1;54.0
20211011_185307.5;0.102;-1.445;11.432;0.072;-0.005;-0.006;156.5;-31.913;4.256;-60.881;5.0;-32.88963;-60.69396;44.1;54.0
20211011_185308.0;-0.133;-0.867;10.223;0.025;0.042;0.013;176.0;-33.094;5.063;-63.188;5.0;-32.88977;-60.69393;44.9;53.6
20211011_185308.5;-0.734;0.005;9.837;-0.003;-0.021;-0.005;176.0;-31.556;6.769;-60.750;5.0;-32.88977;-60.69393;44.9;53.6
20211011_185309.0;-0.652;-0.812;8.749;-0.001;-0.021;-0.007;176.0;-31.781;4.875;-58.706;5.0;-32.88989;-60.69388;44.5;53.5
20211011_185309.5;-0.614;-0.072;9.782;0.047;0.003;0.004;176.0;-31.088;5.663;-59.981;5.0;-32.88989;-60.69388;44.5;53.5
20211011_185310.0;0.214;-0.513;10.934;-0.029;0.022;-0.021;196.9;-32.175;3.788;-59.944;5.0;-32.89002;-60.69384;45.1;54.4
20211011_185310.5;-0.418;-1.234;9.851;0.062;-0.011;-0.016;196.9;-31.950;5.831;-60.881;5.0;-32.89002;-60.69384;45.1;54.4
20211011_185311.0;-0.226;-1.440;9.614;0.041;-0.032;-0.001;219.5;-33.075;5.063;-59.775;5.0;-32.89016;-60.69379;46.3;53.6
20211011_185311.5;-1.302;-1.274;8.256;0.025;0.009;-0.023;219.5;-32.963;5.700;-59.925;5.0;-32.89016;-60.69379;46.3;53.6
20211011_185312.0;-0.250;-0.391;10.582;-0.002;0.010;-0.012;219.5;-32.625;4.256;-60.563;5.0;-32.89029;-60.69375;46.3;53.4
20211011_185312.5;0.178;-0.973;10.871;0.024;0.010;0.024;219.5;-32.944;5.213;-61.013;5.0;-32.89029;-60.69375;46.3;53.4
20211011_185313.0;0.488;-0.889;9.621;0.083;0.009;0.015;219.5;-33.356;5.063;-59.306;5.0;-32.89041;-60.69371;46.3;52.8
20211011_185313.5;-0.672;-0.568;10.323;0.030;0.032;0.018;219.5;-32.569;7.256;-57.619;5.0;-32.89041;-60.69371;46.3;52.8
20211011_185314.0;-0.387;-1.265;11.516;0.121;-0.018;0.011;219.5;-33.225;4.913;-59.456;5.0;-32.89054;-60.69367;46.7;52.1
20211011_185314.5;0.099;-0.314;7.854;-0.037;0.030;0.002;244.7;-32.400;6.319;-60.563;5.0;-32.89054;-60.69367;46.7;52.1
20211011_185315.0;-1.036;-0.609;10.713;-0.022;-0.001;0.011;244.7;-32.494;4.894;-60.244;5.0;-32.89067;-60.69363;45.3;51.7
20211011_185315.5;-0.190;-0.968;7.393;-0.085;0.091;0.027;244.7;-34.800;5.081;-59.269;5.0;-32.89067;-60.69363;45.3;51.7
20211011_185316.0;0.054;-0.939;10.090;0.058;-0.013;0.006;244.7;-32.700;6.638;-59.006;5.0;-32.89080;-60.69361;44.4;51.2
20211011_185316.5;0.552;-1.250;10.062;0.024;-0.036;-0.004;244.7;-33.206;4.125;-61.481;5.0;-32.89080;-60.69361;44.4;51.2
20211011_185317.0;-0.226;-0.925;9.686;-0.029;0.025;0.017;244.7;-32.269;6.469;-59.944;5.0;-32.89092;-60.69357;44.4;50.4
20211011_185318.0;-0.370;-0.611;9.147;-0.091;0.011;0.005;244.7;-31.950;5.831;-60.113;5.0;-32.89092;-60.69357;44.4;50.4
20211011_185318.5;-0.356;-1.438;12.280;-0.015;0.025;0.008;244.7;-32.381;5.831;-60.563;5.0;-32.89104;-60.69353;44.1;50.4
20211011_185319.0;-0.193;-1.035;10.124;0.059;-0.077;-0.027;244.7;-33.244;5.700;-60.244;5.0;-32.89104;-60.69353;44.1;50.4
20211011_185319.5;0.440;-0.405;10.579;-0.011;0.054;-0.013;244.7;-33.206;4.594;-59.925;5.0;-32.89116;-60.69349;43.9;50.5
20211011_185320.0;-1.544;-1.097;10.893;-0.064;-0.058;0.001;244.7;-30.956;5.813;-59.363;5.0;-32.89116;-60.69349;43.9;50.5
20211011_185320.5;-0.159;-1.188;8.074;-0.066;0.029;-0.010;244.7;-30.900;3.919;-59.813;5.0;-32.89128;-60.69344;42.7;48.6
20211011_185321.0;0.205;-1.517;9.942;-0.039;-0.052;-0.007;244.7;-34.369;5.250;-59.119;5.0;-32.89128;-60.69344;42.7;48.6
20211011_185321.5;0.560;-1.354;9.518;0.027;-0.026;-0.020;244.7;-30.956;6.281;-59.363;5.0;-32.89139;-60.69340;42.7;48.0
20211011_185322.0;-0.454;-0.956;8.979;0.026;0.005;0.002;244.7;-32.513;4.894;-61.031;5.0;-32.89139;-60.69340;42.7;48.0
20211011_185322.5;-1.249;-0.939;10.136;-0.053;-0.026;-0.011;244.7;-32.513;5.213;-60.244;5.0;-32.89151;-60.69337;43.4;48.3
20211011_185323.0;-0.490;-1.236;10.670;0.005;-0.022;-0.023;244.7;-31.519;5.663;-59.494;5.0;-32.89151;-60.69337;43.4;48.3
20211011_185323.5;-1.151;-0.889;8.704;0.001;-0.046;-0.007;244.7;-31.931;4.725;-60.113;5.0;-32.89163;-60.69333;44.8;48.2
20211011_185324.0;0.152;-0.422;9.178;0.014;0.029;0.008;244.7;-32.306;3.150;-59.006;5.0;-32.89163;-60.69333;44.8;48.2
20211011_185324.5;-0.845;-0.977;10.788;0.042;0.014;-0.003;221.1;-31.763;4.088;-60.731;5.0;-32.89175;-60.69330;44.3;49.0
20211011_185325.0;-1.527;-1.303;10.402;0.123;-0.037;-0.045;221.1;-31.050;4.556;-59.981;5.0;-32.89175;-60.69330;44.3;49.0
20211011_185325.5;-0.279;-1.059;8.778;0.060;0.009;-0.007;221.1;-32.681;6.319;-59.775;5.0;-32.89187;-60.69326;44.5;49.1
20211011_185326.0;0.040;-0.812;10.922;-0.028;-0.009;-0.013;221.1;-31.800;5.194;-60.731;5.0;-32.89187;-60.69326;44.5;49.1
20211011_185326.5;-0.128;-1.023;9.722;-0.072;-0.008;0.008;221.1;-34.088;5.081;-60.056;5.0;-32.89198;-60.69322;44.7;48.5
20211011_185327.0;-0.418;-0.695;10.366;-0.044;0.027;0.015;221.1;-31.106;6.450;-59.981;5.0;-32.89198;-60.69322;44.7;48.5
20211011_185327.5;-0.595;-0.728;8.754;0.009;-0.064;-0.033;221.1;-31.050;4.088;-60.281;5.0;-32.89210;-60.69318;44.1;48.2
20211011_185328.0;-0.444;-1.056;8.050;-0.024;0.011;-0.003;221.1;-33.206;4.594;-61.481;5.0;-32.89210;-60.69318;44.1;48.2
20211011_185328.5;-0.176;-1.431;8.445;-0.088;-0.001;0.015;221.1;-32.363;5.044;-59.006;5.0;-32.89222;-60.69315;44.2;47.6
20211011_185329.0;-0.279;-1.890;11.657;-0.036;-0.006;-0.017;221.1;-31.631;4.725;-58.556;5.0;-32.89222;-60.69315;44.2;47.6
20211011_185329.5;0.560;-1.622;9.523;-0.113;-0.000;0.017;221.1;-31.538;5.981;-60.281;5.0;-32.89234;-60.69312;45.3;46.9
20211011_185330.0;0.545;-1.315;9.272;-0.066;0.032;0.022;221.1;-29.719;7.538;-60.788;5.0;-32.89234;-60.69312;45.3;46.9
20211011_185330.5;0.154;-1.677;8.902;-0.034;-0.011;-0.039;247.4;-30.675;6.450;-60.300;5.0;-32.89245;-60.69310;43.0;45.0
20211011_185331.0;-0.154;-1.040;7.305;-0.024;-0.010;-0.004;247.4;-32.419;6.638;-60.563;5.0;-32.89245;-60.69310;43.0;45.0
20211011_185331.5;0.476;-0.535;9.825;-0.007;0.017;-0.017;247.4;-29.944;5.644;-59.531;5.0;-32.89255;-60.69306;42.1;43.0
20211011_185332.0;-0.705;-1.493;7.496;-0.089;0.062;-0.036;224.4;-31.106;5.981;-61.069;5.0;-32.89255;-60.69306;42.1;43.0
20211011_185332.5;-0.576;-0.963;8.541;-0.117;0.010;-0.005;224.4;-30.656;5.175;-61.538;5.0;-32.89266;-60.69303;43.4;41.6
20211011_185333.0;-0.549;-2.063;10.278;-0.087;0.017;0.001;203.8;-32.213;4.575;-60.731;5.0;-32.89266;-60.69303;43.4;41.6
20211011_185333.5;-0.722;-1.260;9.183;-0.127;-0.036;0.001;203.8;-32.625;3.956;-60.094;5.0;-32.89276;-60.69300;44.5;40.4
20211011_185334.0;-0.245;-1.598;10.069;-0.068;0.009;0.023;203.8;-32.550;6.788;-58.388;5.0;-32.89276;-60.69300;44.5;40.4
20211011_185334.5;-0.885;-0.836;8.522;0.008;0.004;0.004;229.0;-32.531;5.681;-60.713;5.0;-32.89286;-60.69299;45.3;39.7
20211011_185335.0;-0.181;-1.286;9.454;-0.020;-0.011;0.017;256.9;-34.088;5.081;-59.288;5.0;-32.89286;-60.69299;45.3;39.7
20211011_185335.5;-0.904;-1.347;9.956;0.074;0.017;-0.003;256.9;-32.513;5.213;-59.475;5.0;-32.89295;-60.69296;45.0;38.9
20211011_185336.0;-0.537;-0.944;10.637;0.111;0.040;-0.008;256.9;-32.381;5.531;-60.563;5.0;-32.89295;-60.69296;45.0;38.9
20211011_185336.5;0.392;-1.121;10.831;0.130;-0.045;0.005;256.9;-33.300;7.275;-61.481;5.0;-32.89305;-60.69294;44.6;38.2
20211011_185337.0;-0.864;-1.107;10.491;-0.011;-0.034;0.003;256.9;-33.244;5.700;-59.456;5.0;-32.89305;-60.69294;44.6;38.2
20211011_185337.5;-0.892;-0.898;9.535;0.010;-0.043;0.020;256.9;-31.800;5.194;-60.263;5.0;-32.89314;-60.69291;45.0;37.7
20211011_185338.0;-0.399;-0.853;9.595;-0.073;-0.056;0.007;256.9;-32.381;5.531;-59.006;5.0;-32.89314;-60.69291;45.0;37.7
20211011_185338.5;0.457;-1.056;7.379;-0.060;0.019;0.002;256.9;-33.263;6.019;-61.013;5.0;-32.89323;-60.69288;45.4;36.7
20211011_185339.0;-0.803;-0.853;11.082;0.087;-0.062;-0.017;256.9;-31.931;5.044;-60.581;5.0;-32.89323;-60.69288;45.4;36.7
20211011_185339.5;-1.192;-1.337;9.884;-0.012;-0.051;-0.003;256.9;-31.538;6.450;-60.281;5.0;-32.89332;-60.69285;45.2;36.0
20211011_185340.0;-0.957;-0.578;8.567;0.041;-0.051;-0.015;256.9;-32.494;4.894;-59.944;5.0;-32.89332;-60.69285;45.2;36.0
20211011_185340.5;-0.648;-1.624;9.906;-0.072;-0.017;0.002;256.9;-33.038;3.488;-59.775;5.0;-32.89340;-60.69282;45.0;35.0
20211011_185341.0;-0.643;-1.004;9.360;-0.093;-0.022;-0.001;256.9;-32.250;6.000;-59.475;5.0;-32.89340;-60.69282;45.0;35.0
20211011_185341.5;-0.449;-1.878;11.272;0.054;0.020;-0.007;256.9;-33.113;5.850;-59.775;5.0;-32.89349;-60.69280;45.8;33.8
20211011_185342.0;-0.241;-1.986;10.071;0.101;0.010;0.004;256.9;-31.088;5.194;-61.838;5.0;-32.89349;-60.69280;45.8;33.8
20211011_185342.5;-1.266;-1.433;8.217;-0.016;-0.008;0.009;256.9;-32.231;5.213;-60.263;5.0;-32.89356;-60.69277;46.0;31.5
20211011_185343.0;-0.186;-1.967;9.889;-0.053;0.011;-0.012;256.9;-33.094;5.063;-61.631;5.0;-32.89356;-60.69277;46.0;31.5
20211011_185343.5;0.078;-2.099;9.973;0.010;-0.022;-0.006;256.9;-31.969;6.300;-59.794;5.0;-32.89364;-60.69275;46.8;28.2
20211011_185344.0;-0.729;-2.443;10.431;-0.015;0.004;-0.008;256.9;-31.763;4.088;-59.963;5.0;-32.89364;-60.69275;46.8;28.2
20211011_185344.5;-0.552;-2.319;9.999;-0.019;-0.054;0.000;256.9;-30.619;4.069;-61.856;5.0;-32.89370;-60.69273;46.2;24.0
20211011_185345.0;0.301;-2.465;10.452;-0.009;-0.002;0.012;256.9;-32.588;3.150;-60.863;5.0;-32.89370;-60.69273;46.2;24.0
20211011_185345.5;-0.597;-2.473;9.607;-0.026;-0.039;-0.002;256.9;-31.931;5.044;-60.881;5.0;-32.89375;-60.69272;45.8;18.8
20211011_185346.0;-0.533;-1.727;9.609;0.016;0.001;-0.010;256.9;-32.925;4.594;-61.013;5.0;-32.89375;-60.69272;45.8;18.8
20211011_185346.5;0.183;-1.469;9.940;-0.007;0.017;0.000;256.9;-32.269;6.469;-61.500;5.0;-32.89379;-60.69271;45.5;13.6
20211011_185347.0;-0.341;-1.759;9.789;-0.005;0.003;-0.009;256.9;-33.394;5.850;-61.631;5.0;-32.89379;-60.69271;45.5;13.6
20211011_185347.5;-0.243;-1.624;9.805;0.011;-0.004;-0.004;256.9;-31.106;6.450;-59.981;5.0;-32.89382;-60.69270;45.8;10.5
20211011_185348.0;-0.327;-1.471;9.559;-0.013;-0.007;-0.005;256.9;-32.981;6.488;-61.481;5.0;-32.89382;-60.69270;45.8;10.5
20211011_185348.5;-0.492;-1.407;10.009;0.003;-0.004;-0.005;256.9;-32.419;6.638;-61.350;5.0;-32.89384;-60.69270;45.9;7.1
20211011_185349.0;-0.418;-1.421;9.633;-0.005;0.012;0.001;256.9;-33.375;5.531;-60.075;5.0;-32.89384;-60.69270;45.9;7.1
20211011_185349.5;-0.365;-0.664;9.576;0.035;-0.004;-0.001;256.9;-31.256;6.300;-59.813;5.0;-32.89385;-60.69269;45.9;4.6
20211011_185350.0;-0.310;0.271;9.820;-0.006;0.005;-0.004;256.9;-34.369;4.613;-60.675;5.0;-32.89385;-60.69269;45.9;4.6
20211011_185350.5;-0.171;0.910;10.026;0.010;-0.017;0.004;256.9;-31.050;4.088;-59.981;5.0;-32.89387;-60.69268;46.6;6.1
20211011_185351.0;0.176;1.030;9.499;0.010;0.011;0.018;256.9;-33.338;3.956;-60.075;5.0;-32.89387;-60.69268;46.6;6.1
20211011_185351.5;-0.734;-0.776;9.571;0.005;0.002;0.015;256.9;-32.531;6.000;-61.031;5.0;-32.89389;-60.69267;45.8;11.4
20211011_185352.0;0.047;-0.250;9.425;-0.026;-0.004;0.012;256.9;-33.281;6.806;-63.338;5.0;-32.89389;-60.69267;45.8;11.4
20211011_185352.5;-0.356;0.460;9.202;-0.016;0.010;-0.000;233.3;-33.619;3.806;-60.694;5.0;-32.89392;-60.69266;46.4;12.6
20211011_185353.0;-0.475;0.572;9.856;-0.002;-0.019;-0.005;233.3;-32.363;5.044;-60.881;5.0;-32.89392;-60.69266;46.4;12.6
20211011_185353.5;-0.130;-0.977;9.559;-0.020;0.001;0.000;211.8;-32.944;5.213;-63.356;5.0;-32.89395;-60.69266;45.5;16.3
20211011_185354.0;0.347;-0.834;9.851;0.043;0.021;0.004;211.8;-33.975;6.019;-59.906;5.0;-32.89395;-60.69266;45.5;16.3
20211011_185354.5;-0.099;-0.611;9.817;-0.021;0.029;-0.001;191.2;-32.944;4.894;-61.481;5.0;-32.89400;-60.69264;45.3;18.3
20211011_185355.0;-0.636;0.237;9.439;0.056;0.041;0.015;191.2;-33.319;3.169;-61.631;5.0;-32.89400;-60.69264;45.3;18.3
20211011_185355.5;-0.554;-0.544;9.295;-0.029;0.026;0.008;191.2;-32.700;6.638;-61.331;5.0;-32.89404;-60.69263;45.4;18.2
20211011_185356.0;-0.456;-0.764;9.765;0.004;0.063;0.042;191.2;-31.050;4.556;-61.069;5.0;-32.89404;-60.69263;45.4;18.2
20211011_185356.5;-0.071;0.450;9.865;0.024;0.015;0.037;191.2;-31.781;4.875;-60.263;5.0;-32.89409;-60.69261;46.0;19.2
20211011_185357.0;-0.607;-0.309;10.678;-0.045;-0.036;0.010;214.3;-33.225;4.913;-62.250;5.0;-32.89409;-60.69261;46.0;19.2
20211011_185357.5;-0.502;-0.201;9.521;0.043;-0.030;-0.015;214.3;-33.788;4.763;-60.075;5.0;-32.89413;-60.69259;44.9;20.0
20211011_185358.0;0.385;0.692;10.040;-0.003;-0.003;-0.071;214.3;-33.244;5.700;-62.569;5.0;-32.89413;-60.69259;44.9;20.0
20211011_185358.5;-0.382;1.183;9.817;-0.023;0.009;-0.028;214.3;-32.006;7.725;-61.350;5.0;-32.89418;-60.69257;43.8;23.1
20211011_185359.0;-0.423;-0.697;9.944;0.049;-0.047;-0.026;214.3;-30.544;6.600;-58.594;5.0;-32.89418;-60.69257;43.8;23.1
20211011_185359.5;-0.341;0.771;9.561;0.060;0.021;0.005;240.0;-31.931;5.044;-60.581;5.0;-32.89424;-60.69255;42.9;26.5
20211011_185400.0;-0.561;0.261;9.398;-0.040;0.051;0.029;240.0;-30.506;5.025;-61.688;5.0;-32.89424;-60.69255;42.9;26.5
20211011_185400.5;-1.161;-0.206;9.477;0.083;-0.003;0.002;267.1;-31.781;4.556;-59.963;5.0;-32.89431;-60.69253;43.1;27.6
20211011_185401.0;-1.043;-0.786;9.305;0.042;-0.001;0.015;267.1;-33.356;4.744;-61.313;5.0;-32.89431;-60.69253;43.1;27.6
20211011_185401.5;-0.116;-0.664;9.556;-0.020;0.015;0.008;267.1;-31.256;6.300;-61.369;5.0;-32.89437;-60.69251;42.9;28.5
20211011_185402.0;-0.348;-0.441;10.158;-0.006;0.005;0.009;267.1;-32.644;4.744;-60.094;5.0;-32.89437;-60.69251;42.9;28.5
20211011_185402.5;-0.878;-0.148;10.101;0.026;-0.060;-0.019;267.1;-33.938;5.231;-59.438;5.0;-32.89445;-60.69249;43.0;29.7
20211011_185403.0;-0.497;-0.654;9.832;0.022;0.001;-0.016;267.1;-31.950;5.831;-59.794;5.0;-32.89445;-60.69249;43.0;29.7
20211011_185403.5;-0.358;0.086;7.702;-0.052;-0.003;-0.029;267.1;-32.906;4.106;-60.244;5.0;-32.89452;-60.69246;44.1;30.5
20211011_185404.0;0.423;-0.355;10.124;0.068;-0.018;-0.009;267.1;-32.906;4.106;-58.688;5.0;-32.89452;-60.69246;44.1;30.5
20211011_185404.5;0.133;-0.535;9.506;0.052;0.029;0.006;267.1;-32.381;5.531;-59.794;5.0;-32.89460;-60.69244;45.0;31.3
20211011_185405.0;-0.480;0.156;9.966;-0.064;-0.015;-0.005;267.1;-31.069;4.556;-62.306;5.0;-32.89460;-60.69244;45.0;31.3
20211011_185405.5;-0.509;-0.709;9.597;0.020;-0.013;-0.003;267.1;-33.056;4.275;-60.544;5.0;-32.89468;-60.69242;44.2;32.9
20211011_185406.0;-0.504;-1.159;9.473;0.107;-0.028;0.007;267.1;-32.719;7.106;-60.094;5.0;-32.89468;-60.69242;44.2;32.9
20211011_185406.5;-0.528;-0.278;9.887;0.081;-0.012;0.025;267.1;-32.325;3.938;-60.881;5.0;-32.89476;-60.69239;44.4;33.3
20211011_185407.0;-0.468;-0.163;9.896;0.013;-0.058;-0.001;267.1;-31.463;3.769;-59.963;5.0;-32.89484;-60.69236;44.3;35.4
20211011_185407.5;-0.329;0.120;10.040;-0.043;0.009;-0.019;267.1;-32.006;7.106;-61.669;5.0;-32.89484;-60.69236;44.3;35.4
20211011_185408.0;-0.104;-0.580;10.721;0.012;0.021;-0.005;267.1;-32.588;2.681;-60.863;5.0;-32.89493;-60.69233;45.1;37.4
20211011_185408.5;-0.777;-1.121;10.047;0.066;-0.046;-0.019;267.1;-32.194;4.106;-63.356;5.0;-32.89493;-60.69233;45.1;37.4
20211011_185409.0;-0.317;-0.671;9.173;-0.033;0.024;-0.014;238.6;-32.344;4.256;-61.350;5.0;-32.89502;-60.69230;44.3;37.6
20211011_185409.5;-0.916;-0.989;10.615;-0.008;-0.036;0.002;238.6;-32.644;4.744;-61.331;5.0;-32.89502;-60.69230;44.3;37.6
20211011_185410.0;-0.068;-1.198;10.071;-0.034;-0.004;0.009;238.6;-31.200;4.238;-60.600;5.0;-32.89511;-60.69227;44.9;37.3
20211011_185410.5;0.142;-0.898;9.456;-0.051;-0.036;-0.007;238.6;-31.613;3.938;-60.113;5.0;-32.89511;-60.69227;44.9;37.3
20211011_185411.0;-0.554;-0.841;8.759;-0.013;0.001;-0.012;265.5;-32.325;3.938;-61.331;5.0;-32.89520;-60.69224;44.1;36.6
20211011_185411.5;0.135;-1.629;11.192;0.032;0.008;-0.001;265.5;-34.425;6.825;-60.675;5.0;-32.89520;-60.69224;44.1;36.6
20211011_185412.0;-0.552;-0.194;9.913;0.046;0.032;-0.007;265.5;-31.950;5.831;-60.113;5.0;-32.89529;-60.69222;45.0;36.3
20211011_185412.5;-0.859;-0.410;9.662;0.030;-0.061;0.015;265.5;-31.931;5.044;-61.969;5.0;-32.89529;-60.69222;45.0;36.3
20211011_185413.0;-0.190;-0.271;9.099;0.021;-0.001;0.011;265.5;-33.394;5.850;-60.863;5.0;-32.89538;-60.69219;45.4;37.2
20211011_185413.5;0.442;-1.121;10.690;-0.036;0.031;0.031;265.5;-33.656;5.231;-60.994;5.0;-32.89538;-60.69219;45.4;37.2
20211011_185414.0;0.138;-0.578;9.396;-0.048;0.044;-0.018;265.5;-33.225;5.231;-60.694;5.0;-32.89548;-60.69217;44.8;38.1
20211011_185414.5;-0.303;0.034;9.386;0.013;-0.011;-0.006;265.5;-31.913;4.256;-61.969;5.0;-32.89548;-60.69217;44.8;38.1
20211011_185415.0;0.823;-0.472;10.021;0.010;-0.052;-0.006;236.1;-33.825;5.869;-60.525;5.0;-32.89557;-60.69214;44.4;39.2
20211011_185415.5;-0.152;-0.262;8.543;0.049;0.067;-0.008;188.2;-32.719;7.106;-60.863;5.0;-32.89557;-60.69214;44.4;39.2
20211011_185416.0;-0.521;-1.121;10.522;0.048;-0.028;-0.014;167.6;-31.913;4.256;-59.325;5.0;-32.89566;-60.69211;44.4;39.7
20211011_185416.5;-0.602;-0.657;10.615;0.030;-0.020;-0.001;167.6;-32.269;6.469;-61.031;5.0;-32.89566;-60.69211;44.4;39.7
20211011_185417.0;-1.062;-1.006;9.094;0.044;-0.010;0.003;167.6;-32.213;4.575;-61.500;5.0;-32.89576;-60.69208;44.8;38.9
20211011_185418.0;-0.820;-0.870;10.311;0.057;-0.044;0.026;167.6;-32.269;6.788;-61.819;5.0;-32.89576;-60.69208;44.8;38.9
20211011_185418.5;-1.553;-0.963;10.134;0.025;-0.050;-0.012;188.4;-34.069;4.763;-59.756;5.0;-32.89585;-60.69205;44.0;38.9
20211011_185419.0;-0.633;-0.424;8.842;-0.080;-0.032;-0.001;211.3;-33.844;6.338;-61.313;5.0;-32.89585;-60.69205;44.0;38.9
20211011_185419.5;-0.871;-0.616;10.812;-0.052;0.022;0.032;211.3;-33.225;5.231;-60.694;5.0;-32.89595;-60.69201;43.6;40.0
20211011_185420.0;-0.102;-0.329;9.837;-0.036;-0.020;0.005;235.7;-33.975;6.019;-62.231;5.0;-32.89595;-60.69201;43.6;40.0
20211011_185420.5;-0.332;0.992;9.212;-0.090;0.015;0.002;235.7;-32.550;6.469;-59.475;5.0;-32.89604;-60.69197;42.9;42.1
20211011_185421.0;-0.585;0.563;10.280;-0.037;0.061;0.035;235.7;-31.744;3.769;-60.731;5.0;-32.89604;-60.69197;42.9;42.1
20211011_185421.5;0.699;-1.780;12.549;-0.185;-0.018;-0.036;262.8;-33.094;5.531;-60.863;5.0;-32.89615;-60.69193;43.3;44.4
20211011_185422.0;0.296;-1.179;8.486;-0.039;0.025;-0.016;262.8;-32.381;5.531;-60.881;5.0;-32.89615;-60.69193;43.3;44.4
20211011_185422.5;-0.705;-0.326;8.636;-0.069;0.003;-0.034;262.8;-33.263;6.488;-61.481;5.0;-32.89626;-60.69189;43.5;44.6
20211011_185423.0;0.284;-0.733;9.080;-0.015;0.034;-0.011;262.8;-33.656;5.231;-60.994;5.0;-32.89626;-60.69189;43.5;44.6
20211011_185423.5;-0.372;-0.319;8.335;-0.002;0.024;-0.019;293.0;-36.919;4.013;-56.100;5.0;-32.89637;-60.69185;43.1;45.9
20211011_185424.0;0.159;-1.584;9.975;0.018;0.035;0.003;293.0;-34.688;1.294;-58.950;5.0;-32.89637;-60.69185;43.1;45.9
20211011_185424.5;0.150;-0.599;9.578;-0.039;-0.042;-0.021;293.0;-33.056;4.275;-59.306;5.0;-32.89648;-60.69183;42.1;45.3
20211011_185425.0;-0.360;-0.762;10.002;0.065;-0.004;-0.023;293.0;-33.113;6.319;-60.863;5.0;-32.89648;-60.69183;42.1;45.3
20211011_185425.5;-0.705;-0.575;9.748;0.040;-0.024;-0.011;293.0;-31.481;4.556;-59.194;5.0;-32.89659;-60.69179;42.7;45.4
20211011_185426.0;0.550;-0.884;10.059;0.030;-0.024;-0.012;293.0;-31.838;6.469;-60.731;5.0;-32.89659;-60.69179;42.7;45.4
20211011_185426.5;-0.760;-0.740;8.828;0.042;-0.044;-0.017;293.0;-31.781;4.875;-58.706;5.0;-32.89670;-60.69176;42.5;45.7
20211011_185427.0;-0.770;-0.053;10.804;-0.001;0.033;0.025;293.0;-30.263;6.600;-59.381;5.0;-32.89670;-60.69176;42.5;45.7
20211011_185427.5;0.354;0.098;9.099;-0.081;0.011;-0.002;293.0;-30.638;4.538;-61.538;5.0;-32.89681;-60.69172;43.3;46.3
20211011_185428.0;-0.164;-0.587;10.541;-0.047;0.020;0.000;293.0;-31.519;5.663;-61.838;5.0;-32.89681;-60.69172;43.3;46.3
20211011_185428.5;-0.535;-0.252;8.407;-0.112;0.013;-0.019;293.0;-33.056;3.956;-60.075;5.0;-32.89692;-60.69168;43.6;46.3
20211011_185429.0;-0.895;-0.156;10.132;-0.012;-0.014;-0.011;293.0;-31.238;5.813;-61.988;5.0;-32.89692;-60.69168;43.6;46.3
20211011_185429.5;-0.250;-0.535;9.027;-0.025;0.031;0.009;293.0;-32.494;4.894;-60.713;5.0;-32.89704;-60.69164;44.2;46.4
20211011_185430.0;0.250;-0.934;9.837;-0.004;-0.012;0.005;293.0;-33.244;6.019;-59.456;5.0;-32.89704;-60.69164;44.2;46.4
20211011_185430.5;-0.437;-0.606;8.373;-0.049;-0.050;-0.009;264.8;-32.344;4.256;-60.563;5.0;-32.89715;-60.69161;44.5;46.1
20211011_185431.0;0.188;-0.609;9.999;-0.020;-0.015;-0.012;264.8;-30.638;4.856;-60.300;5.0;-32.89715;-60.69161;44.5;46.1
20211011_185431.5;-0.348;-0.913;10.134;0.079;-0.044;0.002;264.8;-33.825;6.338;-59.288;5.0;-32.89726;-60.69158;44.1;45.9
20211011_185432.0;-0.047;-0.649;10.994;0.094;-0.018;-0.019;264.8;-30.656;5.644;-60.300;5.0;-32.89726;-60.69158;44.1;45.9
20211011_185432.5;-0.360;-1.344;11.207;0.039;0.030;0.009;264.8;-33.300;7.594;-60.713;5.0;-32.89737;-60.69154;43.4;46.1
20211011_185433.0;0.150;-0.784;11.315;0.055;-0.033;-0.003;264.8;-31.519;5.663;-59.494;5.0;-32.89737;-60.69154;43.4;46.1
20211011_185433.5;-0.657;-0.661;9.743;-0.010;-0.003;-0.004;264.8;-32.400;6.319;-61.650;5.0;-32.89749;-60.69151;43.1;45.7
20211011_185434.0;-0.686;-0.429;8.091;-0.042;-0.006;-0.003;264.8;-32.944;5.213;-61.013;5.0;-32.89749;-60.69151;43.1;45.7
20211011_185434.5;-0.748;-0.609;9.896;-0.003;-0.036;-0.010;264.8;-32.250;6.000;-59.944;5.0;-32.89760;-60.69148;42.9;45.7
20211011_185435.0;-1.582;-0.527;10.047;0.023;-0.075;-0.011;264.8;-32.925;4.894;-59.456;5.0;-32.89760;-60.69148;42.9;45.7
20211011_185435.5;-0.492;-0.233;9.777;0.087;0.028;0.003;264.8;-31.950;5.831;-61.350;5.0;-32.89771;-60.69144;44.2;45.9
20211011_185436.0;0.368;-0.487;9.640;0.053;0.003;-0.001;264.8;-33.094;5.531;-59.775;5.0;-32.89771;-60.69144;44.2;45.9
20211011_185436.5;-0.099;-0.597;9.971;0.075;0.008;0.003;264.8;-33.000;7.275;-59.925;5.0;-32.89783;-60.69141;44.0;46.6
20211011_185437.0;-0.597;-0.062;9.774;0.085;-0.069;-0.035;264.8;-31.838;6.788;-61.819;5.0;-32.89783;-60.69141;44.0;46.6
20211011_185437.5;0.030;-0.034;9.420;-0.063;-0.027;-0.013;264.8;-32.719;7.425;-60.094;5.0;-32.89794;-60.69138;43.6;47.5
20211011_185438.0;-0.528;0.110;6.294;-0.091;0.042;0.018;264.8;-31.931;5.513;-57.788;5.0;-32.89794;-60.69138;43.6;47.5
20211011_185438.5;-0.267;-1.006;7.393;0.074;0.028;0.004;264.8;-33.244;5.700;-60.244;5.0;-32.89806;-60.69135;43.6;49.1
20211011_185439.0;-1.034;-0.676;10.869;-0.036;-0.019;0.024;264.8;-33.844;6.338;-60.075;5.0;-32.89806;-60.69135;43.6;49.1
20211011_185439.5;-0.684;-0.355;8.771;-0.033;0.023;0.012;264.8;-32.550;6.788;-59.944;5.0;-32.89818;-60.69131;43.2;50.3
20211011_185440.0;-0.391;-0.017;10.103;0.051;-0.035;0.001;264.8;-33.844;6.338;-60.075;5.0;-32.89818;-60.69131;43.2;50.3
20211011_185440.5;-0.566;-1.397;10.962;0.076;-0.012;-0.001;264.8;-32.231;5.213;-60.731;5.0;-32.89830;-60.69127;42.8;51.9
20211011_185441.0;0.071;-0.882;10.445;0.017;-0.030;-0.004;264.8;-33.038;3.488;-60.863;5.0;-32.89830;-60.69127;42.8;51.9
20211011_185441.5;-0.827;-0.827;10.184;-0.002;-0.030;0.012;264.8;-31.275;7.406;-59.344;5.0;-32.89843;-60.69124;42.3;52.8
20211011_185442.0;-0.128;-0.566;9.425;-0.030;0.038;0.013;294.5;-33.225;4.913;-60.244;5.0;-32.89843;-60.69124;42.3;52.8
20211011_185442.5;-0.317;-0.360;8.555;-0.101;-0.035;-0.005;294.5;-32.231;5.213;-60.263;5.0;-32.89856;-60.69121;42.1;53.3
20211011_185443.0;-0.107;-0.779;9.820;-0.068;-0.029;-0.017;294.5;-32.175;3.788;-61.031;5.0;-32.89856;-60.69121;42.1;53.3
20211011_185443.5;0.255;-1.644;10.263;0.076;0.019;-0.001;294.5;-31.594;3.450;-59.813;5.0;-32.89870;-60.69117;41.7;54.1
20211011_185444.0;-0.023;-0.894;9.872;-0.033;0.010;0.009;294.5;-32.644;4.744;-59.325;5.0;-32.89870;-60.69117;41.7;54.1
20211011_185444.5;-0.447;-1.653;11.961;-0.074;-0.028;-0.006;294.5;-33.150;2.531;-60.225;5.0;-32.89883;-60.69113;41.4;53.6
20211011_185445.0;-0.267;-1.371;9.561;0.008;-0.053;-0.007;294.5;-33.994;6.806;-59.906;5.0;-32.89883;-60.69113;41.4;53.6
20211011_185445.5;-0.585;-0.949;9.743;0.026;0.022;0.004;294.5;-32.531;6.000;-60.244;5.0;-32.89896;-60.69109;41.4;52.9
20211011_185446.0;-0.250;-0.206;9.197;0.078;-0.012;-0.005;294.5;-32.213;4.894;-61.500;5.0;-32.89896;-60.69109;41.4;52.9
20211011_185446.5;-0.521;-1.035;10.062;-0.036;-0.017;-0.004;294.5;-31.669;5.513;-60.900;5.0;-32.89908;-60.69105;41.7;51.9
20211011_185447.0;-0.394;-0.153;9.408;-0.049;0.011;-0.013;294.5;-31.613;3.938;-58.556;5.0;-32.89908;-60.69105;41.7;51.9
20211011_185447.5;-0.437;-0.542;8.596;0.013;-0.032;-0.016;294.5;-32.644;5.063;-60.863;5.0;-32.89921;-60.69102;41.7;51.4
20211011_185448.0;-0.279;-0.403;9.734;0.075;-0.050;0.010;262.4;-32.494;4.575;-59.475;5.0;-32.89921;-60.69102;41.7;51.4
20211011_185448.5;-1.204;-1.147;10.144;0.124;-0.026;-0.001;213.9;-33.356;5.063;-58.519;5.0;-32.89934;-60.69098;41.7;51.3
20211011_185449.0;-0.628;-1.023;10.611;0.041;-0.007;-0.006;192.8;-30.975;6.600;-60.600;5.0;-32.89934;-60.69098;41.7;51.3
20211011_185449.5;-0.281;-0.788;8.713;-0.014;-0.011;0.002;192.8;-33.094;5.531;-59.775;5.0;-32.89946;-60.69095;41.1;50.8
20211011_185450.0;-0.688;-1.044;10.773;0.030;-0.009;0.002;215.4;-31.500;5.194;-60.281;5.0;-32.89946;-60.69095;41.1;50.8
20211011_185450.5;-0.202;-1.262;10.069;-0.003;-0.013;-0.014;242.6;-33.244;5.700;-60.694;5.0;-32.89958;-60.69092;40.9;50.5
20211011_185451.0;-0.090;-0.609;10.402;-0.039;0.022;0.018;242.6;-33.206;4.913;-58.369;5.0;-32.89958;-60.69092;40.9;50.5
20211011_185451.5;-0.964;-0.745;9.793;-0.030;-0.028;-0.012;269.8;-31.800;5.194;-60.263;5.0;-32.89970;-60.69088;40.6;49.9
20211011_185452.0;-0.847;-1.483;10.014;-0.023;-0.035;0.002;269.8;-31.781;4.556;-59.963;5.0;-32.89970;-60.69088;40.6;49.9
20211011_185452.5;-0.030;-1.605;9.662;0.050;0.014;0.005;269.8;-33.056;4.275;-60.863;5.0;-32.89982;-60.69084;41.0;48.4
20211011_185453.0;-0.526;-1.431;9.284;0.007;0.029;-0.003;269.8;-33.338;3.956;-60.844;5.0;-32.89982;-60.69084;41.0;48.4
20211011_185453.5;-1.625;-1.397;8.411;0.031;-0.051;0.010;244.8;-31.800;5.194;-60.731;5.0;-32.89994;-60.69080;40.5;46.2
20211011_185454.0;-0.852;-1.766;9.207;0.011;-0.109;-0.025;244.8;-31.669;5.831;-60.113;5.0;-32.89994;-60.69080;40.5;46.2
20211011_185454.5;-0.138;-2.410;9.774;0.057;0.051;0.020;218.6;-32.513;5.213;-60.713;5.0;-32.90005;-60.69078;40.5;44.1
20211011_185455.0;-0.655;-1.677;9.343;0.017;-0.048;-0.019;218.6;-32.625;4.256;-60.094;5.0;-32.90005;-60.69078;40.5;44.1
20211011_185455.5;-0.437;-1.931;10.426;0.107;0.032;0.023;218.6;-32.681;6.319;-60.563;5.0;-32.90015;-60.69075;40.1;40.8
20211011_185456.0;-0.482;-1.260;9.571;0.061;0.013;0.023;218.6;-32.175;3.300;-60.731;5.0;-32.90015;-60.69075;40.1;40.8
20211011_185456.5;0.478;-1.584;8.653;0.054;-0.015;0.011;245.3;-32.644;4.744;-60.863;5.0;-32.90025;-60.69073;40.0;38.3
20211011_185457.0;-0.037;-0.930;8.052;0.002;0.025;-0.008;245.3;-31.069;5.175;-59.194;5.0;-32.90025;-60.69073;40.0;38.3
20211011_185457.5;-0.454;-1.550;8.797;-0.130;-0.011;-0.012;245.3;-31.838;1.875;-59.025;5.0;-32.90034;-60.69070;39.8;36.8
20211011_185458.0;0.684;-1.519;9.353;-0.059;0.042;-0.000;245.3;-31.950;5.513;-60.581;5.0;-32.90034;-60.69070;39.8;36.8
20211011_185458.5;-1.144;-1.210;9.712;0.001;-0.010;-0.009;245.3;-32.625;4.256;-59.775;5.0;-32.90043;-60.69067;39.7;35.4
20211011_185459.0;0.313;-1.407;9.825;0.076;0.067;0.013;245.3;-32.363;5.044;-61.350;5.0;-32.90043;-60.69067;39.7;35.4
20211011_185459.5;-0.236;-1.909;8.816;0.012;-0.031;0.014;245.3;-32.963;6.000;-59.475;5.0;-32.90051;-60.69065;40.1;34.2
20211011_185500.0;-0.890;-2.331;9.655;-0.051;-0.002;-0.004;220.6;-32.363;5.044;-60.094;5.0;-32.90051;-60.69065;40.1;34.2
20211011_185500.5;-0.071;-2.465;10.158;0.036;-0.026;0.003;199.5;-31.781;4.575;-61.519;5.0;-32.90059;-60.69062;40.6;30.5
20211011_185501.0;-0.617;-2.240;8.814;-0.003;0.011;-0.012;199.5;-32.494;4.575;-61.031;5.0;-32.90059;-60.69062;40.6;30.5
20211011_185501.5;-0.289;-2.453;9.643;0.035;0.010;0.001;199.5;-32.944;4.894;-61.800;5.0;-32.90066;-60.69060;40.6;26.1
20211011_185502.0;-0.382;-2.168;8.941;-0.022;0.010;0.009;199.5;-30.638;4.856;-61.538;5.0;-32.90066;-60.69060;40.6;26.1
20211011_185502.5;-0.743;-1.921;9.056;0.050;0.044;-0.001;180.8;-33.731;7.275;-60.694;5.0;-32.90071;-60.69058;40.0;21.3
20211011_185503.0;-0.516;-1.620;9.477;0.024;0.023;-0.004;180.8;-31.688;6.619;-57.788;5.0;-32.90071;-60.69058;40.0;21.3
20211011_185503.5;-0.379;-1.723;9.930;-0.022;0.023;0.003;180.8;-32.363;4.744;-61.969;5.0;-32.90075;-60.69057;39.0;17.6
20211011_185504.0;-0.157;-1.701;10.146;0.027;0.004;0.002;180.8;-31.088;5.194;-61.519;5.0;-32.90075;-60.69057;39.0;17.6
20211011_185504.5;-0.281;-1.622;9.652;0.002;-0.007;0.008;180.8;-33.263;6.019;-61.781;5.0;-32.90079;-60.69056;39.2;14.1
20211011_185505.0;-0.399;-2.626;9.849;-0.021;-0.011;0.005;180.8;-31.781;4.875;-62.606;5.0;-32.90079;-60.69056;39.2;14.1
20211011_185505.5;-0.298;-2.189;9.928;-0.006;-0.006;0.010;180.8;-31.219;5.025;-60.131;5.0;-32.90082;-60.69055;39.3;10.9
20211011_185506.0;-0.198;-1.771;9.542;-0.001;0.020;0.004;180.8;-33.656;4.913;-63.019;5.0;-32.90082;-60.69055;39.3;10.9
20211011_185506.5;-0.243;-2.024;9.482;-0.007;0.013;0.002;180.8;-31.913;4.256;-59.025;5.0;-32.90084;-60.69054;39.7;6.3
20211011_185507.0;-0.296;-1.193;9.695;-0.005;-0.004;-0.006;180.8;-31.500;4.875;-60.281;5.0;-32.90084;-60.69054;39.7;6.3
20211011_185507.5;-0.358;-1.248;9.583;0.000;0.004;-0.003;180.8;-33.919;4.125;-60.225;5.0;-32.90085;-60.69054;40.1;3.3
20211011_185508.0;-0.291;-1.202;9.762;0.007;0.002;0.002;180.8;-33.094;5.531;-60.075;5.0;-32.90085;-60.69054;40.1;3.3
20211011_185508.5;-0.298;-0.417;9.681;0.020;-0.003;-0.000;180.8;-31.538;6.450;-59.494;5.0;-32.90086;-60.69054;40.0;1.3
20211011_185509.0;-0.286;-0.874;9.798;-0.001;-0.003;0.000;180.8;-33.038;8.063;-61.800;5.0;-32.90086;-60.69054;40.0;1.3
20211011_185509.5;-0.262;-0.772;9.786;-0.000;-0.005;-0.003;180.8;-31.069;5.194;-59.981;5.0;-32.90086;-60.69054;40.2;0.0
20211011_185510.0;-0.291;-0.755;9.798;-0.001;-0.001;-0.000;180.8;-31.238;5.513;-60.600;5.0;-32.90086;-60.69054;40.2;0.0
20211011_185510.5;-0.281;-0.807;9.770;0.001;0.001;-0.000;180.8;-33.694;6.488;-59.925;5.0;-32.90086;-60.69054;40.2;0.0
20211011_185511.0;-0.277;-0.762;9.583;0.002;0.001;0.001;180.8;-31.650;5.513;-60.113;5.0;-32.90086;-60.69054;40.2;0.0
20211011_185511.5;-0.190;-0.846;9.817;0.001;0.003;0.005;180.8;-31.688;6.300;-59.344;5.0;-32.90086;-60.69054;40.2;0.0
20211011_185512.0;-0.300;-0.800;9.827;-0.001;0.003;0.002;180.8;-31.481;4.088;-61.519;5.0;-32.90086;-60.69054;40.2;0.0
20211011_185512.5;-0.293;-0.824;9.865;0.000;0.002;0.003;180.8;-31.106;5.981;-60.281;5.0;-32.90086;-60.69054;40.2;0.0
20211011_185513.0;-0.305;-0.776;9.798;-0.003;0.001;0.002;180.8;-32.663;5.531;-59.006;5.0;-32.90086;-60.69054;40.2;0.0
20211011_185513.5;-0.324;-0.740;9.669;0.000;0.002;0.001;180.8;-32.663;5.531;-62.419;5.0;-32.90086;-60.69054;40.3;0.0
20211011_185514.0;-0.312;-0.769;9.736;0.000;0.001;-0.001;180.8;-31.013;2.981;-62.606;5.0;-32.90086;-60.69054;40.3;0.0
20211011_185514.5;-0.298;-0.781;9.662;0.001;0.001;0.001;180.8;-31.781;4.875;-62.288;5.0;-32.90086;-60.69054;40.3;0.0
20211011_185515.0;-0.310;-0.800;9.755;-0.001;0.001;-0.001;180.8;-31.688;6.300;-60.900;5.0;-32.90086;-60.69054;40.3;0.0
20211011_185515.5;-0.289;-0.769;9.583;0.000;0.002;-0.002;180.8;-31.969;5.831;-61.969;5.0;-32.90086;-60.69054;40.3;0.0
20211011_185516.0;-0.274;-0.807;9.832;0.002;0.003;0.001;180.8;-31.688;6.300;-61.369;5.0;-32.90086;-60.69054;40.2;0.0
20211011_185516.5;-0.269;-0.824;9.729;0.001;0.001;0.001;180.8;-32.250;6.000;-61.031;5.0;-32.90086;-60.69054;40.2;0.0
20211011_185517.0;-0.286;-0.774;9.762;0.001;-0.002;0.000;180.8;-33.131;6.638;-60.863;5.0;-32.90086;-60.69054;40.2;0.0
20211011_185517.5;-0.298;-0.769;9.722;-0.001;0.000;0.001;180.8;-30.600;3.750;-62.306;5.0;-32.90086;-60.69054;40.2;0.0
20211011_185518.0;-0.253;-0.760;9.609;0.002;-0.000;0.001;180.8;-31.763;4.556;-59.175;5.0;-32.90086;-60.69054;40.2;0.0
20211011_185518.5;-0.291;-0.805;9.714;-0.002;-0.002;0.000;180.8;-31.275;7.406;-59.813;5.0;-32.90086;-60.69054;40.2;0.0
20211011_185519.0;-0.296;-0.815;9.813;-0.000;0.001;0.000;180.8;-32.306;8.044;-60.263;5.0;-32.90086;-60.69054;40.2;0.0
20211011_185519.5;-0.286;-0.760;9.662;-0.001;-0.001;-0.001;180.8;-32.963;5.700;-62.269;5.0;-32.90086;-60.69054;40.2;0.0
20211011_185520.0;-0.238;-0.793;9.703;-0.000;-0.000;0.001;180.8;-33.263;6.019;-61.013;5.0;-32.90086;-60.69054;40.2;0.0
20211011_185520.5;-0.274;-0.750;9.597;0.001;0.001;0.000;180.8;-32.006;7.406;-60.113;5.0;-32.90086;-60.69054;40.2;0.0
20211011_185521.0;-0.308;-0.817;9.782;0.001;-0.000;0.001;180.8;-32.381;5.831;-61.350;5.0;-32.90086;-60.69054;40.2;0.0
20211011_185521.5;-0.300;-0.786;9.841;0.001;-0.001;-0.001;180.8;-30.675;6.450;-60.300;5.0;-32.90086;-60.69054;40.2;0.0
20211011_185522.0;-0.255;-0.764;9.619;0.001;0.001;0.000;180.8;-31.500;5.194;-59.494;5.0;-32.90085;-60.69053;41.1;0.0
20211011_185522.5;-0.245;-0.786;9.585;0.001;-0.002;-0.001;180.8;-31.631;4.725;-59.813;5.0;-32.90085;-60.69053;41.1;0.0
20211011_185523.0;-0.289;-0.755;9.612;-0.000;-0.001;0.000;180.8;-30.544;6.281;-61.706;5.0;-32.90085;-60.69053;41.4;0.0
20211011_185524.0;-0.281;-0.812;9.793;-0.001;-0.001;0.002;180.8;-31.988;7.088;-59.344;5.0;-32.90085;-60.69053;41.4;0.0
20211011_185524.5;-0.317;-0.740;9.719;0.001;0.000;0.000;180.8;-31.538;6.450;-61.050;5.0;-32.90085;-60.69053;41.5;0.0
20211011_185525.0;-0.269;-0.843;9.841;-0.001;0.000;0.001;180.8;-32.231;4.894;-63.056;5.0;-32.90085;-60.69053;41.5;0.0
20211011_185525.5;-0.284;-0.764;9.719;-0.000;0.000;0.001;180.8;-33.675;5.700;-60.694;5.0;-32.90085;-60.69053;41.5;0.0
20211011_185526.0;-0.257;-0.757;9.628;-0.001;-0.002;-0.001;180.8;-32.756;8.531;-62.738;5.0;-32.90085;-60.69053;41.5;0.0
20211011_185526.5;-0.274;-0.800;9.729;-0.001;0.002;0.001;180.8;-32.663;5.531;-59.775;5.0;-32.90085;-60.69053;41.5;0.0
20211011_185527.0;-0.284;-0.774;9.829;0.001;0.007;0.003;180.8;-31.256;6.300;-60.131;5.0;-32.90085;-60.69053;41.5;0.0
20211011_185527.5;-0.265;-0.745;9.652;0.001;-0.000;-0.001;180.8;-33.825;5.550;-61.313;5.0;-32.90085;-60.69053;41.5;0.0
20211011_185528.0;-0.277;-0.750;9.585;0.001;-0.001;0.000;180.8;-31.238;5.513;-61.688;5.0;-32.90085;-60.69053;41.5;0.0
20211011_185528.5;-0.265;-0.762;9.597;0.002;0.004;0.004;180.8;-31.988;7.088;-60.881;5.0;-32.90085;-60.69053;41.4;0.0
20211011_185529.0;-0.293;-0.807;9.734;-0.002;-0.007;-0.005;180.8;-32.569;6.788;-60.713;5.0;-32.90085;-60.69053;41.4;0.0
20211011_185529.5;-0.245;-0.841;9.880;-0.004;0.005;0.000;180.8;-30.713;7.238;-63.094;5.0;-32.90085;-60.69053;41.4;0.0
20211011_185530.0;-0.303;-0.810;9.863;-0.005;0.010;0.002;180.8;-32.250;6.000;-61.500;5.0;-32.90085;-60.69053;41.4;0.0
20211011_185530.5;-0.248;-0.772;9.676;-0.000;-0.003;-0.001;164.2;-31.800;5.663;-59.963;5.0;-32.90085;-60.69053;41.4;0.0
20211011_185531.0;-0.262;-0.819;9.705;0.002;0.007;0.005;164.2;-31.200;4.238;-61.688;5.0;-32.90085;-60.69053;41.4;0.0
20211011_185531.5;-0.296;-0.819;9.827;0.002;-0.001;-0.001;164.2;-31.931;5.044;-62.438;5.0;-32.90085;-60.69053;41.4;0.0
20211011_185532.0;-0.212;-0.819;9.815;0.001;0.009;0.005;164.2;-31.069;4.875;-61.069;5.0;-32.90085;-60.69053;41.4;0.0
20211011_185532.5;-0.277;-0.779;9.765;-0.000;0.003;0.000;164.2;-31.088;5.194;-61.838;5.0;-32.90085;-60.69053;41.5;0.0
20211011_185533.0;-0.296;-0.772;9.655;0.002;0.001;0.000;164.2;-30.525;5.813;-60.150;5.0;-32.90085;-60.69053;41.5;0.0
20211011_185533.5;-0.281;-0.800;9.786;-0.000;0.001;0.002;164.2;-32.438;7.425;-61.650;5.0;-32.90085;-60.69053;41.4;0.0
20211011_185534.0;-0.262;-0.764;9.600;-0.000;-0.000;0.000;164.2;-31.519;5.194;-61.519;5.0;-32.90085;-60.69053;41.4;0.0
20211011_185534.5;-0.281;-0.740;9.612;-0.001;-0.003;-0.001;164.2;-32.944;5.213;-62.569;5.0;-32.90085;-60.69053;41.4;0.0
20211011_185535.0;-0.257;-0.757;9.609;0.002;-0.000;0.000;164.2;-31.688;6.619;-61.369;5.0;-32.90085;-60.69053;41.4;0.0
20211011_185535.5;-0.284;-0.807;9.817;-0.000;-0.002;0.001;164.2;-31.256;6.300;-61.988;5.0;-32.90085;-60.69053;41.5;0.0
20211011_185536.0;-0.269;-0.767;9.741;0.001;-0.002;-0.001;164.2;-32.250;6.000;-61.500;5.0;-32.90085;-60.69053;41.5;0.0
20211011_185536.5;-0.248;-0.757;9.662;0.001;-0.001;-0.002;164.2;-31.538;5.981;-61.519;5.0;-32.90085;-60.69053;41.4;0.0
20211011_185537.0;-0.300;-0.764;9.681;-0.000;0.000;-0.001;164.2;-32.381;5.531;-62.438;5.0;-32.90085;-60.69053;41.4;0.0
20211011_185537.5;-0.286;-0.738;9.628;-0.000;-0.000;0.000;164.2;-31.819;5.681;-62.288;5.0;-32.90085;-60.69053;41.5;0.0
20211011_185538.0;-0.281;-0.798;9.700;0.001;-0.001;0.000;164.2;-31.519;5.194;-61.519;5.0;-32.90085;-60.69053;41.5;0.0
20211011_185538.5;-0.269;-0.831;9.899;0.002;-0.000;0.001;164.2;-32.231;5.213;-62.269;5.0;-32.90085;-60.69053;41.4;0.0
20211011_185539.0;-0.233;-0.812;9.817;0.001;-0.000;0.001;164.2;-30.506;5.494;-61.388;5.0;-32.90085;-60.69053;41.4;0.0
20211011_185539.5;-0.274;-0.807;9.837;-0.000;0.001;0.000;164.2;-30.544;6.600;-60.619;5.0;-32.90085;-60.69053;41.4;0.0
20211011_185540.0;-0.233;-0.829;9.815;0.001;-0.000;0.002;164.2;-31.669;5.513;-60.900;5.0;-32.90085;-60.69053;41.4;0.0
20211011_185540.5;-0.279;-0.767;9.693;0.002;0.003;0.000;164.2;-32.269;6.469;-60.731;5.0;-32.90085;-60.69053;41.5;0.0
20211011_185541.0;-0.267;-0.764;9.647;0.001;-0.002;-0.001;164.2;-30.975;6.600;-60.131;5.0;-32.90085;-60.69053;41.5;0.0
20211011_185541.5;-0.241;-0.788;9.738;-0.000;-0.001;-0.001;164.2;-31.931;4.725;-61.669;5.0;-32.90085;-60.69053;41.4;0.0
20211011_185542.0;-0.291;-0.745;9.700;-0.000;-0.002;0.001;164.2;-31.200;4.238;-61.688;5.0;-32.90085;-60.69053;41.4;0.0
20211011_185542.5;-0.291;-0.836;9.889;0.002;-0.002;-0.001;164.2;-32.681;6.319;-60.563;5.0;-32.90085;-60.69053;41.5;0.0
20211011_185543.0;-0.260;-0.810;9.839;-0.001;-0.001;0.000;164.2;-31.556;6.769;-61.050;5.0;-32.90085;-60.69053;41.5;0.0
20211011_185543.5;-0.255;-0.786;9.782;-0.002;-0.003;0.001;164.2;-32.306;3.469;-60.094;5.0;-32.90085;-60.69053;41.5;0.0
20211011_185544.0;-0.255;-0.769;9.772;-0.001;-0.001;0.000;164.2;-31.069;5.194;-59.981;5.0;-32.90085;-60.69053;41.5;0.0
20211011_185544.5;-0.298;-0.834;9.872;-0.000;-0.002;0.001;164.2;-33.075;4.744;-59.775;5.0;-32.90085;-60.69053;41.5;0.0
20211011_185545.0;-0.269;-0.762;9.664;0.001;-0.001;0.000;164.2;-30.919;5.025;-59.831;5.0;-32.90085;-60.69053;41.5;0.0
20211011_185545.5;-0.245;-0.791;9.578;0.001;-0.000;0.001;164.2;-31.256;6.300;-61.988;5.0;-32.90085;-60.69053;41.5;0.0
20211011_185546.0;-0.269;-0.772;9.571;-0.001;-0.002;-0.001;164.2;-31.219;5.025;-61.688;5.0;-32.90085;-60.69053;41.5;0.0
20211011_185546.5;-0.291;-0.805;9.607;-0.000;0.000;0.001;164.2;-31.125;6.769;-61.069;5.0;-32.90085;-60.69053;41.5;0.0
20211011_185547.0;-0.195;-0.774;9.765;0.002;-0.008;-0.003;164.2;-31.781;4.875;-60.263;5.0;-32.90085;-60.69053;41.5;0.0
20211011_185547.5;-0.286;-0.793;9.726;0.001;0.000;-0.001;164.2;-32.494;4.894;-59.944;5.0;-32.90085;-60.69053;41.5;0.0
20211011_185548.0;-0.317;-0.788;9.614;0.001;-0.001;-0.002;164.2;-30.956;5.813;-60.600;5.0;-32.90085;-60.69053;41.5;0.0
20211011_185548.5;-0.279;-0.693;9.583;-0.000;-0.000;0.000;164.2;-34.069;4.763;-59.288;5.0;-32.90085;-60.69053;41.5;0.0
20211011_185549.0;-0.293;-0.060;9.997;0.013;-0.003;-0.003;164.2;-32.400;6.319;-60.563;5.0;-32.90085;-60.69053;41.5;0.0
20211011_185549.5;-0.195;1.231;9.861;0.017;-0.002;-0.007;164.2;-31.294;7.406;-61.688;5.0;-32.90085;-60.69053;41.4;0.0
20211011_185550.0;-0.255;0.563;10.047;0.004;0.011;-0.012;164.2;-31.819;6.469;-59.175;5.0;-32.90085;-60.69053;41.4;0.0
20211011_185550.5;0.013;0.939;10.066;-0.015;0.020;-0.001;164.2;-31.144;7.238;-63.075;5.0;-32.90088;-60.69053;44.8;6.3
20211011_185551.0;-0.468;0.699;10.021;-0.016;0.011;-0.006;164.2;-32.381;5.831;-60.563;5.0;-32.90088;-60.69053;44.8;6.3
20211011_185551.5;-0.327;-0.848;9.803;0.004;0.005;-0.009;164.2;-32.363;5.044;-59.006;5.0;-32.90090;-60.69052;44.8;11.3
20211011_185552.0;-0.260;1.509;9.058;0.087;0.022;-0.003;164.2;-31.256;6.300;-61.369;5.0;-32.90090;-60.69052;44.8;11.3
20211011_185552.5;-0.023;0.596;10.328;-0.044;-0.005;0.004;164.2;-30.956;5.813;-60.131;5.0;-32.90093;-60.69051;44.7;13.6
20211011_185553.0;-0.018;0.781;10.381;0.010;-0.001;-0.013;164.2;-32.381;5.831;-59.794;5.0;-32.90093;-60.69051;44.7;13.6
20211011_185553.5;-0.432;0.608;10.883;-0.051;0.020;-0.007;164.2;-31.200;4.238;-61.988;5.0;-32.90097;-60.69050;44.3;18.6
20211011_185554.0;-0.463;0.824;10.078;0.030;0.033;0.008;164.2;-30.656;5.175;-61.538;5.0;-32.90097;-60.69050;44.3;18.6
20211011_185554.5;-0.095;-0.745;9.477;-0.031;-0.004;-0.007;164.2;-31.838;6.769;-59.175;5.0;-32.90103;-60.69048;44.2;25.4
20211011_185555.0;-0.157;0.508;8.431;0.011;0.003;0.010;164.2;-31.931;5.044;-60.881;5.0;-32.90103;-60.69048;44.2;25.4
20211011_185555.5;0.284;0.476;9.386;0.022;0.007;0.017;164.2;-31.669;5.831;-60.581;5.0;-32.90109;-60.69046;43.7;26.8
20211011_185556.0;-0.418;0.498;9.276;0.021;-0.016;-0.002;164.2;-33.075;5.063;-61.331;5.0;-32.90109;-60.69046;43.7;26.8
20211011_185556.5;0.238;-0.129;9.595;-0.052;-0.010;0.007;182.8;-32.363;4.725;-60.563;5.0;-32.90117;-60.69044;43.5;30.5
20211011_185557.0;-0.358;0.917;9.410;-0.058;0.011;-0.014;206.1;-31.688;6.300;-60.900;5.0;-32.90117;-60.69044;43.5;30.5
20211011_185557.5;-0.176;-0.491;10.989;-0.071;0.014;-0.010;206.1;-32.550;6.469;-58.388;5.0;-32.90125;-60.69042;44.0;34.6
20211011_185558.0;-0.135;-0.410;8.629;-0.015;-0.005;-0.007;206.1;-31.669;5.831;-60.113;5.0;-32.90125;-60.69042;44.0;34.6
20211011_185558.5;-0.948;-2.252;11.377;0.052;-0.037;0.016;206.1;-32.381;5.831;-58.556;5.0;-32.90133;-60.69039;43.6;38.3
20211011_185559.0;-0.845;-0.810;9.592;0.016;0.044;0.016;206.1;-30.638;4.856;-60.300;5.0;-32.90133;-60.69039;43.6;38.3
20211011_185559.5;-0.753;-0.515;10.984;0.014;0.002;-0.004;186.6;-32.569;7.256;-59.944;5.0;-32.90143;-60.69036;43.2;38.8
20211011_185600.0;-0.468;0.007;9.645;0.052;0.011;0.002;166.5;-34.519;5.081;-60.825;5.0;-32.90143;-60.69036;43.2;38.8
20211011_185600.5;-0.312;-0.503;10.187;0.025;-0.017;-0.013;151.3;-33.769;4.275;-60.056;5.0;-32.90152;-60.69032;42.1;40.4
20211011_185601.0;-0.569;-0.918;9.643;0.018;0.024;0.002;170.6;-33.413;6.338;-59.775;5.0;-32.90152;-60.69032;42.1;40.4
20211011_185601.5;-0.147;-0.623;10.974;0.143;-0.015;0.022;170.6;-31.031;3.769;-60.281;5.0;-32.90162;-60.69030;41.3;42.9
20211011_185602.0;0.233;-0.038;9.760;0.002;0.001;-0.006;191.2;-31.781;4.875;-61.819;5.0;-32.90162;-60.69030;41.3;42.9
20211011_185602.5;0.564;-0.153;10.452;0.008;0.040;-0.012;191.2;-32.400;6.319;-59.794;5.0;-32.90172;-60.69026;40.1;43.7
20211011_185603.0;-0.087;-0.250;10.330;0.050;-0.078;-0.029;212.4;-31.650;5.044;-61.988;5.0;-32.90172;-60.69026;40.1;43.7
20211011_185603.5;0.335;-1.238;11.029;0.064;-0.009;-0.001;212.4;-32.906;4.106;-61.800;5.0;-32.90184;-60.69023;39.1;46.5
20211011_185604.0;-0.241;-0.669;10.603;0.068;-0.064;-0.026;212.4;-30.600;3.750;-61.069;5.0;-32.90195;-60.69018;37.9;48.0
20211011_185604.5;0.207;-0.992;9.228;0.039;-0.022;0.000;212.4;-32.231;5.213;-60.263;5.0;-32.90195;-60.69018;37.9;48.0
20211011_185605.0;-0.193;-0.973;10.203;0.071;0.009;-0.003;212.4;-32.363;5.044;-59.794;5.0;-32.90195;-60.69018;37.9;48.0
20211011_185605.5;0.123;-0.853;10.472;0.053;0.021;0.021;212.4;-31.688;6.300;-60.113;5.0;-32.90207;-60.69016;37.5;48.1
20211011_185606.0;-0.514;-0.997;8.862;0.019;0.007;0.024;212.4;-34.538;5.569;-60.825;5.0;-32.90219;-60.69012;38.6;49.3
20211011_185606.5;-0.241;-0.894;8.778;-0.063;0.016;-0.005;212.4;-33.056;4.275;-60.544;5.0;-32.90219;-60.69012;38.6;49.3
20211011_185607.0;-0.458;-0.412;10.069;-0.092;-0.000;0.004;212.4;-31.519;5.663;-61.838;5.0;-32.90232;-60.69009;38.2;50.3
20211011_185607.5;0.097;-0.266;8.474;-0.058;0.011;0.010;212.4;-31.463;3.300;-62.288;5.0;-32.90232;-60.69009;38.2;50.3
20211011_185608.0;0.178;-1.035;9.935;-0.042;0.016;0.005;212.4;-33.338;3.956;-60.844;5.0;-32.90244;-60.69006;37.8;51.0
20211011_185608.5;-0.499;-2.041;10.852;-0.092;0.029;0.006;212.4;-33.038;3.488;-59.775;5.0;-32.90244;-60.69006;37.8;51.0
20211011_185609.0;-0.873;-1.224;10.129;-0.080;0.012;0.013;212.4;-31.781;4.875;-61.050;5.0;-32.90256;-60.69002;37.0;51.0
20211011_185609.5;0.138;-1.080;9.171;0.021;0.024;0.002;212.4;-32.494;4.575;-62.269;5.0;-32.90256;-60.69002;37.0;51.0
20211011_185610.0;-0.370;-1.361;9.671;0.094;-0.049;0.001;190.9;-30.863;2.663;-61.988;5.0;-32.90268;-60.68998;38.2;50.2
20211011_185610.5;-0.967;-0.223;7.772;0.069;-0.010;-0.026;169.6;-32.250;5.681;-62.269;5.0;-32.90268;-60.68998;38.2;50.2
20211011_185611.0;-0.260;-0.479;9.664;-0.005;0.022;-0.006;151.3;-31.688;6.619;-60.900;5.0;-32.90280;-60.68994;37.8;49.8
20211011_185611.5;0.119;-0.994;9.544;-0.092;-0.007;-0.004;120.5;-34.125;6.338;-60.525;5.0;-32.90280;-60.68994;37.8;49.8
20211011_185612.0;-0.506;-1.054;9.489;0.004;-0.013;-0.020;109.0;-33.038;3.488;-59.775;5.0;-32.90292;-60.68990;37.9;49.6
20211011_185612.5;-0.020;-1.150;10.390;0.016;0.025;0.016;109.0;-32.625;3.956;-63.206;5.0;-32.90292;-60.68990;37.9;49.6
20211011_185613.0;-0.482;-1.380;10.747;0.003;-0.012;-0.003;109.0;-31.631;4.725;-59.813;5.0;-32.90304;-60.68986;38.2;49.4
20211011_185613.5;-0.224;-0.712;9.865;-0.030;0.003;0.006;121.2;-33.225;4.913;-60.244;5.0;-32.90304;-60.68986;38.2;49.4
20211011_185614.0;-0.564;-0.513;9.820;0.067;-0.020;-0.001;121.2;-31.950;5.513;-61.969;5.0;-32.90315;-60.68983;37.2;48.8
20211011_185615.0;-0.514;-0.779;10.035;0.054;-0.028;0.011;135.9;-30.938;5.813;-59.044;5.0;-32.90315;-60.68983;37.2;48.8
20211011_185615.5;-0.871;-1.068;10.680;0.028;0.008;0.031;135.9;-31.950;5.513;-63.525;5.0;-32.90327;-60.68979;37.5;49.1
20211011_185616.0;-0.360;-0.760;10.095;-0.041;-0.021;0.003;135.9;-31.800;5.194;-61.519;5.0;-32.90327;-60.68979;37.5;49.1
20211011_185616.5;-0.162;-0.953;8.778;0.009;0.064;0.014;122.4;-33.788;4.763;-60.844;5.0;-32.90340;-60.68976;37.0;49.8
20211011_185617.0;-0.238;-0.482;9.623;0.007;0.001;-0.002;122.4;-32.400;6.319;-60.094;5.0;-32.90340;-60.68976;37.0;49.8
20211011_185617.5;-0.102;-0.290;9.987;0.102;-0.036;0.024;122.4;-30.975;6.600;-58.575;5.0;-32.90351;-60.68970;39.0;50.6
20211011_185618.0;-0.372;-1.066;8.354;-0.081;0.003;-0.020;122.4;-31.256;6.300;-62.456;5.0;-32.90351;-60.68970;39.0;50.6
20211011_185618.5;-0.535;-0.640;11.116;-0.038;0.028;0.017;154.6;-31.613;4.238;-59.813;5.0;-32.90363;-60.68966;39.5;51.1
20211011_185619.0;0.349;-1.068;10.555;-0.034;0.006;0.010;176.5;-33.038;3.488;-58.988;5.0;-32.90363;-60.68966;39.5;51.1
20211011_185619.5;-0.876;-1.737;9.418;0.017;0.025;0.006;196.6;-31.819;5.681;-61.050;5.0;-32.90376;-60.68963;39.0;51.4
20211011_185620.0;-0.743;-0.944;10.575;0.032;-0.017;-0.003;219.1;-31.688;6.619;-60.581;5.0;-32.90376;-60.68963;39.0;51.4
20211011_185620.5;0.703;-1.641;10.639;0.054;0.036;0.011;219.1;-32.663;5.063;-61.331;5.0;-32.90388;-60.68958;37.9;50.6
20211011_185621.0;-0.523;-2.094;9.195;-0.046;0.044;0.000;219.1;-32.175;3.300;-61.031;5.0;-32.90388;-60.68958;37.9;50.6
20211011_185621.5;-0.020;-1.140;9.865;-0.091;-0.011;-0.019;219.1;-32.925;4.594;-61.013;5.0;-32.90400;-60.68954;38.5;48.8
20211011_185622.0;-0.880;-1.727;9.853;-0.023;-0.012;0.011;196.9;-32.569;6.788;-62.588;5.0;-32.90400;-60.68954;38.5;48.8
20211011_185622.5;-0.717;-0.997;9.631;0.027;-0.054;-0.013;156.5;-32.681;5.850;-60.563;5.0;-32.90411;-60.68950;38.1;46.6
20211011_185623.0;-0.243;-2.199;10.445;0.121;-0.039;0.005;139.6;-30.225;5.494;-62.006;5.0;-32.90411;-60.68950;38.1;46.6
20211011_185623.5;-0.715;-2.417;9.463;0.022;-0.017;-0.004;139.6;-33.094;5.531;-60.075;5.0;-32.90422;-60.68947;37.7;43.5
20211011_185624.0;-0.772;-2.793;8.773;-0.005;0.069;0.034;139.6;-31.950;5.831;-59.794;5.0;-32.90422;-60.68947;37.7;43.5
20211011_185624.5;0.366;-2.371;8.802;-0.031;-0.017;-0.002;139.6;-33.188;4.106;-59.138;5.0;-32.90432;-60.68944;37.7;38.6
20211011_185625.0;0.217;-2.292;8.919;-0.102;0.041;-0.004;139.6;-31.500;4.875;-62.606;5.0;-32.90432;-60.68944;37.7;38.6
20211011_185625.5;-0.873;-2.079;9.130;-0.004;0.014;-0.020;139.6;-30.338;4.538;-59.531;5.0;-32.90441;-60.68941;37.9;33.0
20211011_185626.0;0.080;-2.189;8.818;0.059;0.032;0.010;139.6;-31.969;6.300;-63.225;5.0;-32.90441;-60.68941;37.9;33.0
20211011_185626.5;-0.415;-2.041;10.095;-0.041;-0.013;0.009;139.6;-32.531;6.000;-60.713;5.0;-32.90448;-60.68940;37.6;27.3
20211011_185627.0;-0.061;-2.851;9.602;0.010;0.016;0.012;139.6;-32.494;4.894;-59.156;5.0;-32.90448;-60.68940;37.6;27.3
20211011_185627.5;-0.389;-2.350;9.676;-0.063;-0.024;0.001;139.6;-33.656;5.231;-60.994;5.0;-32.90454;-60.68938;38.1;21.2
20211011_185628.0;-0.657;-2.540;9.219;0.042;-0.042;-0.006;139.6;-32.531;6.000;-61.800;5.0;-32.90454;-60.68938;38.1;21.2
20211011_185628.5;-0.391;-2.034;9.422;0.014;-0.003;-0.012;139.6;-30.919;5.025;-59.363;5.0;-32.90458;-60.68937;38.2;15.4
20211011_185629.0;-0.212;-1.457;9.626;-0.032;0.006;0.009;139.6;-33.244;5.700;-60.694;5.0;-32.90458;-60.68937;38.2;15.4
20211011_185629.5;-0.564;-1.512;10.023;-0.011;-0.015;-0.007;139.6;-33.131;6.638;-60.544;5.0;-32.90461;-60.68936;38.4;12.6
20211011_185630.0;-0.571;-1.502;9.798;-0.004;0.001;0.003;139.6;-31.819;6.469;-59.175;5.0;-32.90461;-60.68936;38.4;12.6
20211011_185630.5;-0.444;-1.873;9.724;-0.007;-0.017;-0.016;139.6;-32.250;5.681;-61.819;5.0;-32.90464;-60.68935;38.5;10.8
20211011_185631.0;-0.403;-2.398;9.784;0.011;-0.016;-0.010;139.6;-33.788;4.763;-61.613;5.0;-32.90464;-60.68935;38.5;10.8
20211011_185631.5;-0.202;-1.842;9.537;-0.020;-0.022;-0.003;139.6;-32.438;3.000;-60.713;5.0;-32.90466;-60.68934;39.1;6.6
20211011_185632.0;-0.243;-1.219;9.396;0.002;-0.006;-0.001;126.6;-32.700;6.319;-61.331;5.0;-32.90466;-60.68934;39.1;6.6
20211011_185632.5;-0.078;-1.538;9.631;0.002;0.014;0.006;126.6;-30.413;7.219;-60.300;5.0;-32.90468;-60.68934;38.9;4.3
20211011_185633.0;-0.140;-1.483;9.564;-0.001;-0.008;0.003;126.6;-32.681;6.319;-59.006;5.0;-32.90468;-60.68934;38.9;4.3
20211011_185633.5;-0.188;-1.260;9.753;0.006;0.001;0.002;126.6;-31.988;6.619;-61.669;5.0;-32.90469;-60.68934;39.2;2.3
20211011_185634.0;-0.257;-1.140;9.762;0.005;0.005;0.004;126.6;-31.556;6.450;-62.606;5.0;-32.90469;-60.68934;39.2;2.3
20211011_185634.5;-0.233;-1.131;9.868;-0.000;-0.005;0.002;126.6;-31.969;6.300;-60.113;5.0;-32.90469;-60.68934;39.5;1.0
20211011_185635.0;-0.212;-1.116;9.762;0.001;-0.002;0.000;126.6;-31.519;5.194;-61.819;5.0;-32.90469;-60.68934;39.5;1.0
20211011_185635.5;-0.195;-0.819;9.583;-0.000;0.000;0.001;126.6;-32.363;5.044;-61.969;5.0;-32.90469;-60.68934;40.0;0.0
20211011_185636.0;-0.236;-0.870;9.710;0.001;0.000;-0.001;126.6;-31.669;5.513;-60.900;5.0;-32.90469;-60.68934;40.0;0.0
20211011_185636.5;-0.209;-0.877;9.810;-0.002;0.002;0.000;126.6;-31.500;4.875;-62.288;5.0;-32.90469;-60.68934;40.0;0.0
20211011_185637.0;-0.217;-0.898;9.638;0.001;0.000;0.001;114.9;-31.575;7.256;-61.519;5.0;-32.90469;-60.68934;40.0;0.0
20211011_185637.5;-0.183;-0.925;9.767;-0.001;0.001;0.000;114.9;-31.519;5.663;-62.606;5.0;-32.90469;-60.68934;40.0;0.0
20211011_185638.0;-0.243;-0.906;9.758;0.001;0.002;-0.001;114.9;-31.200;4.706;-61.688;5.0;-32.90469;-60.68934;40.0;0.0
20211011_185638.5;-0.202;-0.889;9.758;0.001;-0.001;0.000;114.9;-30.619;4.069;-61.069;5.0;-32.90469;-60.68934;40.0;0.0
20211011_185639.0;-0.243;-0.879;9.662;0.001;0.003;0.002;114.9;-32.419;6.638;-62.738;5.0;-32.90469;-60.68934;40.0;0.0
20211011_185639.5;-0.226;-0.886;9.607;0.001;-0.003;-0.001;114.9;-31.988;6.619;-61.669;5.0;-32.90469;-60.68934;40.0;0.0
20211011_185640.0;-0.253;-0.879;9.669;0.001;-0.001;-0.001;114.9;-32.531;5.681;-61.031;5.0;-32.90469;-60.68934;40.0;0.0
20211011_185640.5;-0.229;-0.896;9.705;0.001;-0.001;-0.001;114.9;-31.519;5.663;-61.050;5.0;-32.90469;-60.68934;40.0;0.0
20211011_185641.0;-0.217;-0.920;9.762;0.001;-0.004;0.001;114.9;-32.550;6.469;-59.944;5.0;-32.90469;-60.68934;40.0;0.0
20211011_185641.5;-0.205;-0.903;9.738;0.000;0.002;0.001;114.9;-31.556;6.769;-61.838;5.0;-32.90469;-60.68934;40.0;0.0
20211011_185642.0;-0.226;-0.915;9.647;-0.002;-0.001;0.002;114.9;-31.125;6.769;-62.306;5.0;-32.90469;-60.68934;40.0;0.0
20211011_185642.5;-0.238;-0.949;9.798;-0.001;0.003;0.001;114.9;-34.125;6.338;-60.525;5.0;-32.90469;-60.68934;40.0;0.0
20211011_185643.0;-0.205;-0.870;9.801;-0.002;-0.001;-0.002;114.9;-33.000;6.806;-61.800;5.0;-32.90469;-60.68934;40.0;0.0
20211011_185643.5;-0.205;-0.815;9.681;0.002;-0.000;0.002;114.9;-31.800;5.194;-60.263;5.0;-32.90469;-60.68934;40.0;0.0
20211011_185644.0;-0.166;-0.827;9.597;-0.001;-0.003;0.001;114.9;-32.269;6.469;-59.944;5.0;-32.90469;-60.68934;40.0;0.0
20211011_185644.5;-0.236;-0.879;9.813;-0.001;-0.002;-0.000;114.9;-31.069;4.875;-59.981;5.0;-32.90469;-60.68934;40.0;0.0
20211011_185645.0;-0.260;-0.951;9.837;-0.001;-0.000;-0.001;114.9;-31.538;5.981;-61.838;5.0;-32.90469;-60.68934;40.0;0.0
20211011_185645.5;-0.209;-0.896;9.738;-0.001;-0.000;-0.001;114.9;-30.506;5.494;-61.388;5.0;-32.90469;-60.68934;40.0;0.0
20211011_185646.0;-0.205;-0.915;9.810;-0.001;0.003;0.002;114.9;-32.681;5.850;-61.650;5.0;-32.90469;-60.68934;40.0;0.0
20211011_185646.5;-0.245;-0.724;9.674;-0.002;0.003;0.001;114.9;-31.950;5.513;-62.756;5.0;-32.90469;-60.68934;40.0;0.0
20211011_185647.0;-0.154;-0.196;9.600;0.000;-0.002;-0.001;114.9;-30.394;6.431;-60.300;5.0;-32.90469;-60.68934;40.0;0.0
20211011_185647.5;-0.164;0.014;9.650;0.003;-0.001;-0.001;114.9;-30.938;5.025;-60.919;5.0;-32.90469;-60.68934;40.0;0.0
20211011_185648.0;-0.236;-0.704;9.770;-0.001;-0.004;-0.003;114.9;-31.819;5.681;-61.819;5.0;-32.90469;-60.68934;40.0;0.0
20211011_185648.5;-0.217;-0.824;9.755;-0.003;-0.004;-0.004;114.9;-31.950;5.513;-60.881;5.0;-32.90469;-60.68934;39.9;1.6
20211011_185649.0;-0.274;-0.822;9.805;-0.003;-0.002;-0.000;114.9;-31.088;5.663;-61.538;5.0;-32.90469;-60.68934;39.9;1.6
20211011_185649.5;-0.178;-0.788;9.655;0.004;0.003;-0.000;114.9;-33.075;5.063;-58.988;5.0;-32.90470;-60.68934;39.7;2.2
20211011_185650.0;-0.193;-0.877;9.655;-0.002;-0.007;0.001;114.9;-31.519;5.981;-58.725;5.0;-32.90470;-60.68934;39.7;2.2
20211011_185650.5;-0.205;-1.119;9.875;-0.008;-0.004;0.001;114.9;-33.394;5.850;-59.775;5.0;-32.90470;-60.68933;39.8;2.3
20211011_185651.0;-0.236;-1.114;9.650;-0.002;-0.003;-0.001;114.9;-31.950;5.831;-61.350;5.0;-32.90470;-60.68933;39.8;2.3
20211011_185651.5;-0.195;-1.138;9.578;0.002;-0.008;-0.002;114.9;-33.675;6.019;-58.369;5.0;-32.90471;-60.68933;39.9;1.5
20211011_185652.0;-0.123;-1.155;9.793;0.001;-0.001;-0.000;127.7;-31.106;6.450;-59.513;5.0;-32.90471;-60.68933;39.9;1.5
20211011_185652.5;-0.178;-0.925;9.681;0.001;-0.000;0.001;127.7;-32.269;6.469;-60.731;5.0;-32.90471;-60.68933;39.8;0.0
20211011_185653.0;-0.176;-0.894;9.604;0.001;-0.001;-0.000;127.7;-32.006;7.106;-62.438;5.0;-32.90471;-60.68933;39.8;0.0
20211011_185653.5;-0.200;-0.937;9.738;0.000;0.003;0.001;127.7;-32.213;5.194;-57.938;5.0;-32.90471;-60.68933;39.3;0.0
20211011_185654.0;-0.157;-0.934;9.784;0.001;0.000;-0.000;127.7;-32.963;5.700;-60.713;5.0;-32.90471;-60.68933;39.3;0.0
20211011_185654.5;-0.178;-0.934;9.808;0.000;-0.002;-0.000;127.7;-31.256;6.300;-59.813;5.0;-32.90471;-60.68933;39.3;0.0
20211011_185655.0;-0.176;-0.884;9.640;-0.001;-0.001;0.001;127.7;-33.713;6.806;-59.925;5.0;-32.90471;-60.68933;39.3;0.0
20211011_185655.5;-0.193;-0.879;9.588;0.001;-0.001;-0.001;127.7;-32.494;4.894;-59.475;5.0;-32.90471;-60.68933;39.3;0.0
20211011_185656.0;-0.169;-0.865;9.614;0.001;-0.002;-0.001;127.7;-32.644;5.063;-60.094;5.0;-32.90471;-60.68933;39.3;0.0
20211011_185656.5;-0.190;-0.872;9.612;-0.001;0.002;0.001;127.7;-29.944;5.963;-60.000;5.0;-32.90471;-60.68933;39.3;0.0
20211011_185657.0;-0.130;-0.661;9.609;0.002;-0.001;-0.000;127.7;-33.694;6.488;-59.456;5.0;-32.90471;-60.68933;39.3;0.0
20211011_185657.5;-0.176;-0.810;9.815;0.000;0.000;0.001;127.7;-32.663;5.531;-60.863;5.0;-32.90471;-60.68933;39.3;0.0
20211011_185658.0;-0.162;-0.592;9.679;0.000;0.000;0.001;127.7;-31.763;4.088;-60.731;5.0;-32.90471;-60.68933;39.3;0.0
20211011_185658.5;-0.025;-0.127;9.870;0.008;-0.002;-0.000;127.7;-31.500;5.194;-59.963;5.0;-32.90471;-60.68933;39.3;0.0
20211011_185659.0;-0.272;0.567;10.016;0.005;0.011;0.010;127.7;-31.819;5.681;-61.819;5.0;-32.90471;-60.68933;39.3;0.0
20211011_185659.5;-0.171;-0.101;10.009;-0.012;0.005;0.025;127.7;-32.963;5.700;-61.013;5.0;-32.90471;-60.68934;39.2;2.3
20211011_185700.0;-0.315;0.373;10.078;0.019;-0.011;0.013;127.7;-32.231;5.681;-60.731;5.0;-32.90471;-60.68934;39.2;2.3
20211011_185700.5;-0.023;0.433;9.899;0.014;0.036;0.015;127.7;-32.213;4.894;-60.731;5.0;-32.90473;-60.68933;39.2;7.4
20211011_185701.0;-0.384;0.369;10.066;-0.064;0.001;0.003;127.7;-33.394;5.550;-62.400;5.0;-32.90473;-60.68933;39.2;7.4
20211011_185701.5;0.347;-0.970;9.315;0.013;-0.018;0.005;127.7;-33.131;6.319;-61.631;5.0;-32.90475;-60.68933;39.6;11.6
20211011_185702.0;-0.317;0.419;9.339;0.027;-0.007;0.007;127.7;-31.725;7.406;-60.900;5.0;-32.90475;-60.68933;39.6;11.6
20211011_185702.5;-0.044;0.709;9.992;-0.031;0.033;-0.030;142.7;-31.838;6.469;-60.731;5.0;-32.90478;-60.68931;39.4;13.4
20211011_185703.0;0.397;0.491;9.770;0.049;0.048;-0.038;142.7;-31.988;6.619;-60.881;5.0;-32.90478;-60.68931;39.4;13.4
20211011_185703.5;-0.171;0.067;9.772;-0.029;0.042;-0.020;142.7;-30.656;5.644;-61.069;5.0;-32.90482;-60.68930;39.4;18.4
20211011_185704.0;-0.324;-0.343;9.485;-0.003;-0.038;-0.026;158.6;-30.488;5.025;-60.150;5.0;-32.90482;-60.68930;39.4;18.4
20211011_185704.5;0.025;-0.465;10.450;0.021;0.019;0.014;158.6;-30.938;5.494;-62.006;5.0;-32.90488;-60.68929;39.2;22.1
20211011_185705.0;-0.698;-0.597;10.282;-0.014;-0.038;-0.009;176.7;-31.088;5.663;-61.838;5.0;-32.90488;-60.68929;39.2;22.1
20211011_185705.5;-0.365;0.488;10.414;0.012;-0.054;-0.008;176.7;-31.894;3.938;-60.881;5.0;-32.90493;-60.68928;38.5;24.4
20211011_185706.0;-0.442;0.172;9.736;0.023;-0.002;0.002;176.7;-30.169;3.900;-60.919;5.0;-32.90500;-60.68925;38.1;26.9
20211011_185706.5;-0.037;0.639;8.634;0.042;0.044;0.015;176.7;-31.106;5.663;-63.863;5.0;-32.90500;-60.68925;38.1;26.9
20211011_185707.0;-0.377;0.096;9.588;-0.019;0.005;0.011;176.7;-31.088;5.663;-61.069;5.0;-32.90507;-60.68923;37.3;29.8
20211011_185707.5;-0.164;-0.274;9.777;-0.080;0.044;-0.001;176.7;-32.644;4.744;-60.863;5.0;-32.90507;-60.68923;37.3;29.8
20211011_185708.0;-0.676;-1.143;9.983;-0.020;-0.055;-0.011;176.7;-32.981;6.488;-59.925;5.0;-32.90514;-60.68921;36.8;32.9
20211011_185708.5;-0.040;1.188;10.555;0.059;-0.036;-0.007;176.7;-33.244;5.700;-59.156;5.0;-32.90514;-60.68921;36.8;32.9
20211011_185709.0;0.368;0.419;9.861;0.042;0.016;-0.022;176.7;-31.238;5.513;-60.600;5.0;-32.90523;-60.68919;35.9;34.6
20211011_185709.5;0.111;0.101;11.053;0.045;-0.013;-0.001;176.7;-33.431;7.125;-60.863;5.0;-32.90523;-60.68919;35.9;34.6
20211011_185710.0;-0.253;0.184;10.946;-0.135;0.049;-0.005;159.9;-30.900;4.238;-59.363;5.0;-32.90531;-60.68916;35.5;38.5
20211011_185710.5;-0.569;0.019;8.979;-0.117;-0.012;-0.023;144.5;-31.500;4.875;-60.750;5.0;-32.90531;-60.68916;35.5;38.5
20211011_185711.0;-0.509;0.050;8.897;-0.093;-0.006;-0.010;129.1;-30.938;5.025;-60.919;5.0;-32.90541;-60.68913;35.2;42.4
20211011_185711.5;-0.047;-0.441;9.542;-0.025;0.026;0.002;129.1;-33.244;5.700;-60.694;5.0;-32.90541;-60.68913;35.2;42.4
20211011_185712.0;-0.133;-0.561;11.092;-0.038;0.016;0.007;129.1;-33.206;4.594;-59.925;5.0;-32.90552;-60.68910;34.9;43.6
20211011_185712.5;0.919;0.041;11.123;-0.045;0.015;0.016;116.2;-31.931;4.725;-61.350;5.0;-32.90552;-60.68910;34.9;43.6
20211011_185713.0;-0.181;-0.985;9.652;-0.064;-0.034;0.004;116.2;-31.781;4.875;-59.963;5.0;-32.90563;-60.68907;35.3;45.7
20211011_185713.5;-0.233;-0.618;10.666;-0.041;0.001;-0.001;116.2;-32.963;5.681;-59.475;5.0;-32.90563;-60.68907;35.3;45.7
20211011_185714.0;-0.085;0.187;8.941;-0.057;0.029;-0.010;116.2;-31.781;4.875;-59.963;5.0;-32.90573;-60.68903;35.2;45.7
20211011_185714.5;-0.463;-0.973;10.989;-0.039;-0.064;-0.024;116.2;-31.838;6.469;-59.963;5.0;-32.90573;-60.68903;35.2;45.7
20211011_185715.0;-0.775;0.539;8.756;-0.072;0.033;-0.009;116.2;-32.344;4.725;-59.794;5.0;-32.90585;-60.68899;35.5;47.0
20211011_185715.5;0.895;-0.618;8.395;-0.018;-0.018;-0.017;116.2;-31.238;5.513;-61.369;5.0;-32.90585;-60.68899;35.5;47.0
20211011_185716.0;-0.123;-0.376;7.238;-0.002;0.039;0.005;129.3;-32.231;5.681;-60.731;5.0;-32.90597;-60.68895;35.6;48.3
20211011_185717.0;-0.300;-0.645;10.192;0.026;0.034;0.021;145.4;-32.925;4.894;-60.244;5.0;-32.90597;-60.68895;35.6;48.3
20211011_185717.5;0.579;-0.733;8.768;0.088;0.029;0.030;162.4;-31.856;7.256;-59.494;5.0;-32.90608;-60.68892;34.8;48.3
20211011_185718.0;-0.988;-1.344;10.792;0.054;0.040;0.015;180.5;-32.906;4.106;-59.925;5.0;-32.90608;-60.68892;34.8;48.3
20211011_185718.5;0.023;-0.597;9.430;-0.028;-0.037;-0.023;180.5;-33.225;4.913;-61.781;5.0;-32.90619;-60.68888;36.0;47.9
20211011_185719.0;0.217;-1.349;8.907;-0.025;0.012;0.014;180.5;-30.338;4.538;-61.069;5.0;-32.90619;-60.68888;36.0;47.9
20211011_185719.5;0.044;-0.439;9.425;0.093;-0.037;-0.006;180.5;-31.163;3.131;-62.456;5.0;-32.90631;-60.68884;36.2;48.3
20211011_185720.0;0.418;-0.666;10.110;0.006;0.062;0.003;162.6;-29.738;3.900;-60.150;5.0;-32.90631;-60.68884;36.2;48.3
20211011_185720.5;-0.123;-0.819;10.282;-0.085;-0.032;-0.012;147.3;-31.481;4.088;-61.819;5.0;-32.90643;-60.68881;36.8;48.7
20211011_185721.0;-1.017;-0.343;10.002;-0.035;-0.106;-0.032;147.3;-31.800;5.194;-61.819;5.0;-32.90643;-60.68881;36.8;48.7
20211011_185721.5;-0.430;-0.657;8.574;0.045;0.005;-0.001;164.1;-32.363;5.044;-60.881;5.0;-32.90655;-60.68877;36.7;49.3
20211011_185722.0;-0.087;-1.042;10.503;0.040;0.009;0.028;164.1;-30.619;4.069;-61.069;5.0;-32.90655;-60.68877;36.7;49.3
20211011_185722.5;-0.296;-1.202;11.442;0.064;-0.030;-0.017;164.1;-33.956;5.700;-59.438;5.0;-32.90667;-60.68874;35.8;49.7
20211011_185723.0;-0.499;-0.345;10.625;0.039;0.008;-0.023;147.3;-31.688;6.300;-61.369;5.0;-32.90667;-60.68874;35.8;49.7
20211011_185723.5;-0.557;-0.659;11.041;0.072;-0.012;0.009;147.3;-33.788;4.763;-60.844;5.0;-32.90680;-60.68869;36.7;50.0
20211011_185724.0;-0.004;-0.436;9.118;-0.020;-0.040;-0.004;133.1;-30.975;6.600;-61.369;5.0;-32.90680;-60.68869;36.7;50.0
20211011_185724.5;0.073;-0.716;9.018;0.064;0.013;-0.006;133.1;-32.475;3.788;-59.944;5.0;-32.90691;-60.68865;35.6;50.1
20211011_185725.0;-0.121;-1.354;10.294;0.099;0.007;0.018;133.1;-31.200;4.706;-59.044;5.0;-32.90691;-60.68865;35.6;50.1
20211011_185725.5;-0.478;-0.805;10.139;0.016;-0.037;0.002;147.9;-31.238;5.813;-61.688;5.0;-32.90703;-60.68862;35.7;50.3
20211011_185726.0;-0.214;-0.740;8.615;0.019;-0.018;0.007;147.9;-29.663;5.644;-61.088;5.0;-32.90703;-60.68862;35.7;50.3
20211011_185726.5;0.133;-0.163;7.470;-0.105;0.022;0.001;147.9;-33.825;5.869;-59.288;5.0;-32.90716;-60.68858;36.5;51.2
20211011_185727.0;-0.648;-0.482;11.430;0.044;-0.004;-0.015;147.9;-31.800;5.194;-60.263;5.0;-32.90716;-60.68858;36.5;51.2
20211011_185727.5;-0.061;0.057;10.199;0.005;0.034;0.006;147.9;-31.819;5.981;-62.288;5.0;-32.90728;-60.68854;36.3;52.1
20211011_185728.0;-0.008;-0.233;8.972;-0.131;0.035;0.022;147.9;-33.075;5.063;-60.863;5.0;-32.90728;-60.68854;36.3;52.1
20211011_185728.5;-0.705;-1.059;10.553;-0.048;-0.029;-0.026;147.9;-31.856;2.681;-60.881;5.0;-32.90741;-60.68849;36.0;52.5
20211011_185729.0;-0.902;-0.920;10.220;0.036;-0.058;-0.029;147.9;-29.850;2.944;-58.444;5.0;-32.90741;-60.68849;36.0;52.5
20211011_185729.5;-0.530;-0.254;8.229;0.043;0.007;0.004;132.8;-30.525;5.813;-60.150;5.0;-32.90754;-60.68846;36.3;53.6
20211011_185730.0;-1.304;-0.424;8.395;-0.052;0.010;0.011;132.8;-31.238;5.813;-59.813;5.0;-32.90754;-60.68846;36.3;53.6
20211011_185730.5;-0.660;-0.163;6.783;-0.111;-0.084;-0.025;119.7;-31.238;5.813;-60.600;5.0;-32.90767;-60.68841;36.8;54.3
20211011_185731.0;-0.049;-1.226;9.102;-0.070;-0.081;-0.030;119.7;-31.650;5.044;-60.113;5.0;-32.90767;-60.68841;36.8;54.3
20211011_185731.5;0.545;-1.399;6.401;-0.080;0.031;-0.018;108.7;-32.513;5.213;-61.500;5.0;-32.90780;-60.68838;35.2;54.3
20211011_185732.0;0.174;-1.157;9.542;-0.001;-0.070;-0.015;108.7;-32.475;3.788;-59.475;5.0;-32.90780;-60.68838;35.2;54.3
20211011_185732.5;-0.087;-0.942;10.642;0.084;-0.057;-0.019;121.9;-30.506;5.494;-60.619;5.0;-32.90793;-60.68834;34.8;53.6
20211011_185733.0;0.940;-1.656;12.592;0.066;0.081;0.019;121.9;-31.969;6.300;-61.669;5.0;-32.90793;-60.68834;34.8;53.6
20211011_185733.5;-0.655;-0.714;10.189;-0.126;-0.011;-0.014;136.5;-32.625;3.956;-60.094;5.0;-32.90806;-60.68830;34.5;52.7
20211011_185734.0;-0.399;-0.882;9.954;-0.013;-0.017;-0.020;153.4;-31.931;5.044;-61.350;5.0;-32.90806;-60.68830;34.5;52.7
20211011_185734.5;0.138;-1.248;11.478;0.055;0.016;0.016;153.4;-32.213;4.894;-62.269;5.0;-32.90818;-60.68827;33.4;52.2
20211011_185735.0;-0.032;-0.920;9.803;0.039;0.023;0.018;153.4;-32.250;6.000;-61.031;5.0;-32.90818;-60.68827;33.4;52.2
20211011_185735.5;0.221;-0.939;10.742;0.011;-0.034;0.003;136.6;-32.269;6.469;-60.263;5.0;-32.90831;-60.68823;33.2;51.3
20211011_185736.0;-0.864;-0.664;8.897;0.007;0.014;0.006;122.4;-31.031;3.769;-61.069;5.0;-32.90831;-60.68823;33.2;51.3
20211011_185736.5;-0.545;-0.491;11.053;-0.071;0.025;0.020;109.0;-32.231;4.894;-63.056;5.0;-32.90844;-60.68821;31.9;50.7
20211011_185737.0;0.471;-0.508;7.940;-0.096;0.026;0.001;109.0;-33.225;4.913;-63.038;5.0;-32.90844;-60.68821;31.9;50.7
20211011_185737.5;-0.684;-0.007;9.523;-0.003;0.019;-0.007;124.9;-32.494;4.894;-60.244;5.0;-32.90856;-60.68817;32.1;50.5
20211011_185738.0;0.233;-0.444;9.861;0.062;0.015;0.002;140.7;-32.288;7.256;-60.731;5.0;-32.90856;-60.68817;32.1;50.5
20211011_185738.5;-1.187;-0.129;11.863;0.082;-0.107;-0.045;140.7;-30.244;5.813;-61.388;5.0;-32.90868;-60.68813;32.6;51.4
20211011_185739.0;0.051;-0.338;10.127;-0.081;0.066;0.010;125.3;-33.094;5.531;-60.544;5.0;-32.90868;-60.68813;32.6;51.4
20211011_185739.5;0.916;-1.054;10.979;-0.011;0.065;0.045;125.3;-32.644;4.744;-60.863;5.0;-32.90882;-60.68809;32.3;52.9
20211011_185740.0;-0.315;-0.434;8.244;-0.140;-0.017;-0.006;125.3;-32.550;6.469;-60.263;5.0;-32.90882;-60.68809;32.3;52.9
20211011_185740.5;0.121;0.615;8.397;-0.031;-0.019;-0.019;125.3;-32.363;4.744;-63.206;5.0;-32.90895;-60.68805;32.2;53.5
20211011_185741.0;-0.657;-0.863;9.485;0.035;0.019;0.012;140.5;-32.006;7.406;-59.025;5.0;-32.90895;-60.68805;32.2;53.5
20211011_185741.5;0.557;-1.375;11.507;0.051;-0.004;0.001;140.5;-33.225;5.231;-61.481;5.0;-32.90908;-60.68802;31.2;54.9
20211011_185742.0;-0.375;0.182;8.684;-0.096;-0.073;-0.000;156.4;-32.531;5.681;-59.944;5.0;-32.90908;-60.68802;31.2;54.9
20211011_185742.5;-0.087;0.079;9.394;0.004;-0.066;-0.021;156.4;-32.925;4.594;-61.013;5.0;-32.90921;-60.68798;30.8;54.4
20211011_185743.0;0.205;-0.410;10.546;0.023;-0.087;-0.033;173.9;-31.481;4.556;-60.281;5.0;-32.90921;-60.68798;30.8;54.4
20211011_185743.5;-0.435;-0.618;8.593;-0.075;-0.033;-0.007;155.3;-32.550;6.469;-59.944;5.0;-32.90934;-60.68793;30.2;55.8
20211011_185744.0;-1.785;-0.707;5.369;-0.062;-0.057;-0.031;155.3;-32.494;4.575;-59.944;5.0;-32.90934;-60.68793;30.2;55.8
20211011_185744.5;-0.305;-0.712;10.047;-0.036;0.019;0.016;155.3;-34.013;7.294;-58.669;5.0;-32.90948;-60.68789;30.5;56.0
20211011_185745.0;-0.286;-0.786;9.133;-0.072;0.014;0.010;155.3;-32.381;5.531;-60.563;5.0;-32.90948;-60.68789;30.5;56.0
20211011_185745.5;0.147;-1.363;11.368;0.079;-0.028;-0.012;173.9;-32.681;6.319;-59.775;5.0;-32.90962;-60.68785;30.7;55.8
20211011_185746.0;-0.408;-0.451;9.568;0.039;-0.068;0.001;173.9;-33.225;5.213;-58.369;5.0;-32.90962;-60.68785;30.7;55.8
20211011_185746.5;-0.111;-0.611;9.980;0.058;-0.064;-0.020;193.4;-32.700;6.638;-59.006;5.0;-32.90975;-60.68782;30.2;55.5
20211011_185747.0;-1.292;-1.335;11.229;0.051;-0.037;-0.006;193.4;-31.781;4.875;-61.050;5.0;-32.90975;-60.68782;30.2;55.5
20211011_185747.5;-0.396;-0.079;9.494;-0.069;0.065;0.020;172.5;-31.688;6.300;-60.900;5.0;-32.90988;-60.68777;30.6;55.0
20211011_185748.0;-0.518;-0.934;10.682;0.035;-0.015;0.006;154.3;-34.088;5.081;-62.700;5.0;-32.90988;-60.68777;30.6;55.0
20211011_185748.5;-1.173;-1.684;12.062;0.103;-0.011;-0.005;138.8;-31.969;6.300;-60.113;5.0;-32.91001;-60.68773;31.8;54.5
20211011_185749.0;0.130;-0.894;10.510;-0.004;-0.036;-0.026;125.2;-35.494;4.781;-55.838;5.0;-32.91001;-60.68773;31.8;54.5
20211011_185749.5;-0.020;-0.266;8.220;0.028;-0.000;0.005;125.2;-33.769;4.275;-58.519;5.0;-32.91016;-60.68769;31.0;55.9
20211011_185750.0;-0.164;-0.865;10.838;-0.056;0.065;0.015;125.2;-31.913;4.256;-60.881;5.0;-32.91016;-60.68769;31.0;55.9
20211011_185750.5;-0.147;-0.192;9.602;0.032;0.001;-0.011;125.2;-32.531;6.000;-60.244;5.0;-32.91029;-60.68764;30.2;55.5
20211011_185751.0;-0.281;-0.930;9.578;0.049;-0.027;-0.027;125.2;-32.981;6.488;-59.475;5.0;-32.91029;-60.68764;30.2;55.5
20211011_185751.5;0.229;-0.704;8.857;0.078;-0.054;0.002;125.2;-30.956;5.813;-60.600;5.0;-32.91042;-60.68759;30.2;55.2
20211011_185752.0;-0.561;-0.117;9.578;-0.110;0.007;-0.000;125.2;-32.363;4.725;-60.881;5.0;-32.91042;-60.68759;30.2;55.2
20211011_185752.5;-0.602;-0.939;9.679;0.017;0.045;0.003;125.2;-33.356;5.063;-58.988;5.0;-32.91055;-60.68756;29.6;54.5
20211011_185753.0;-0.095;-0.939;10.646;0.075;-0.016;0.015;125.2;-32.681;6.319;-59.006;5.0;-32.91055;-60.68756;29.6;54.5
20211011_185753.5;0.459;-1.229;11.337;0.016;0.057;0.040;141.5;-33.225;4.913;-60.244;5.0;-32.91068;-60.68751;30.2;53.7
20211011_185754.0;0.209;-1.414;10.701;-0.005;0.024;-0.021;141.5;-32.213;4.894;-59.475;5.0;-32.91081;-60.68747;31.3;53.1
20211011_185754.5;0.296;-0.499;9.705;-0.010;0.053;-0.004;157.4;-30.488;5.025;-59.363;5.0;-32.91081;-60.68747;31.3;53.1
20211011_185755.0;-0.186;-0.731;10.194;0.060;-0.019;-0.024;157.4;-32.644;5.063;-60.094;5.0;-32.91094;-60.68745;30.2;52.2
20211011_185755.5;-0.540;-2.106;9.073;-0.013;-0.054;-0.022;157.4;-32.681;5.850;-60.094;5.0;-32.91094;-60.68745;30.2;52.2
20211011_185756.0;-0.044;-2.738;9.212;-0.079;0.046;0.003;157.4;-31.219;5.025;-59.813;5.0;-32.91107;-60.68741;31.6;50.0
20211011_185756.5;-0.399;-2.456;10.031;-0.071;-0.003;0.007;157.4;-31.931;5.044;-59.794;5.0;-32.91107;-60.68741;31.6;50.0
20211011_185757.0;-0.341;-3.227;11.022;-0.050;-0.001;0.014;157.4;-33.244;6.019;-59.925;5.0;-32.91118;-60.68738;30.4;44.3
20211011_185757.5;0.581;-2.901;10.153;-0.056;-0.010;-0.042;141.7;-32.550;6.469;-61.500;5.0;-32.91118;-60.68738;30.4;44.3
20211011_185758.0;-0.365;-2.326;9.432;-0.044;-0.003;-0.017;141.7;-32.400;6.319;-60.094;5.0;-32.91128;-60.68736;30.2;38.4
20211011_185758.5;-0.341;-2.473;8.605;0.019;-0.004;0.003;141.7;-31.969;5.831;-61.969;5.0;-32.91128;-60.68736;30.2;38.4
20211011_185759.0;-0.466;-1.162;10.081;-0.010;-0.012;0.018;141.7;-32.494;4.894;-60.244;5.0;-32.91137;-60.68733;29.6;33.9
20211011_185759.5;-0.743;-1.533;8.823;0.075;-0.030;0.010;141.7;-30.975;6.281;-61.688;5.0;-32.91137;-60.68733;29.6;33.9
20211011_185800.0;-0.104;-1.866;9.861;-0.134;-0.012;0.023;128.6;-31.519;5.194;-61.819;5.0;-32.91145;-60.68732;29.2;31.6
20211011_185800.5;-0.018;-0.882;8.416;0.031;-0.023;0.014;128.6;-31.969;6.300;-60.113;5.0;-32.91145;-60.68732;29.2;31.6
20211011_185801.0;-0.042;-1.687;10.493;0.048;0.016;-0.035;128.6;-32.588;7.575;-59.944;5.0;-32.91152;-60.68729;29.7;29.8
20211011_185801.5;0.001;-1.634;10.706;-0.113;0.040;-0.008;128.6;-33.300;7.275;-61.013;5.0;-32.91152;-60.68729;29.7;29.8
20211011_185802.0;0.433;-1.317;8.838;-0.012;0.031;-0.003;128.6;-31.219;5.025;-60.131;5.0;-32.91159;-60.68726;30.2;27.5
20211011_185802.5;0.533;-0.226;9.197;0.062;0.026;-0.002;128.6;-31.238;5.513;-61.369;5.0;-32.91159;-60.68726;30.2;27.5
20211011_185803.0;-0.413;-0.764;9.564;-0.071;0.001;-0.015;128.6;-32.325;3.938;-61.331;5.0;-32.91166;-60.68725;30.4;25.9
20211011_185803.5;-0.205;-0.977;10.314;0.027;0.024;-0.001;128.6;-30.656;5.644;-61.856;5.0;-32.91166;-60.68725;30.4;25.9
20211011_185804.0;-0.779;-0.604;10.845;-0.068;0.001;-0.001;128.6;-32.700;6.319;-61.331;5.0;-32.91172;-60.68723;31.3;25.3
20211011_185805.0;-0.808;-0.939;10.354;0.031;-0.043;-0.009;128.6;-32.513;5.213;-61.500;5.0;-32.91172;-60.68723;31.3;25.3
20211011_185805.5;-0.233;-0.602;9.106;0.064;0.011;0.001;115.8;-31.238;5.513;-61.369;5.0;-32.91178;-60.68722;31.1;24.8
20211011_185806.0;-0.578;-1.025;8.984;-0.006;-0.040;0.011;115.8;-32.494;4.575;-60.713;5.0;-32.91178;-60.68722;31.1;24.8
20211011_185806.5;0.135;-0.992;9.626;0.017;-0.011;-0.008;115.8;-31.500;4.875;-61.519;5.0;-32.91184;-60.68720;30.2;24.9
20211011_185807.0;0.085;-1.157;9.358;-0.002;-0.008;-0.022;115.8;-30.488;4.706;-60.600;5.0;-32.91184;-60.68720;30.2;24.9
20211011_185807.5;-0.030;-1.131;9.719;-0.007;-0.027;-0.012;115.8;-33.244;6.019;-60.244;5.0;-32.91190;-60.68719;30.0;23.7
20211011_185808.0;-0.164;-0.580;9.454;0.019;0.007;-0.001;115.8;-31.069;5.194;-60.281;5.0;-32.91190;-60.68719;30.0;23.7
20211011_185808.5;-0.099;-0.678;9.585;-0.007;-0.010;-0.004;105.0;-31.950;5.513;-60.581;5.0;-32.91196;-60.68718;29.2;25.0
20211011_185809.0;-0.107;-0.475;9.418;0.015;0.023;0.015;105.0;-31.931;4.725;-61.969;5.0;-32.91196;-60.68718;29.2;25.0
20211011_185809.5;-0.116;0.421;9.444;0.018;0.010;-0.006;95.4;-29.681;6.431;-61.556;5.0;-32.91202;-60.68716;29.2;26.2
20211011_185810.0;-0.200;0.156;9.815;-0.006;0.017;0.007;95.4;-30.469;4.219;-61.388;5.0;-32.91202;-60.68716;29.2;26.2
20211011_185810.5;-0.466;0.065;9.556;0.007;-0.009;0.011;95.4;-30.900;3.919;-60.600;5.0;-32.91209;-60.68714;29.6;29.6
20211011_185811.0;-0.344;-0.961;9.209;-0.033;0.000;0.020;86.5;-31.631;4.256;-61.669;5.0;-32.91209;-60.68714;29.6;29.6
20211011_185811.5;-0.142;-0.839;8.529;-0.030;0.023;0.024;86.5;-29.888;3.750;-60.769;5.0;-32.91216;-60.68712;28.8;31.9
20211011_185812.0;-0.020;0.271;9.889;-0.032;0.000;0.010;113.3;-31.144;7.556;-60.281;5.0;-32.91216;-60.68712;28.8;31.9
20211011_185812.5;-0.621;0.704;8.977;0.034;0.027;0.017;129.2;-33.656;4.913;-61.781;5.0;-32.91224;-60.68709;30.4;33.1
20211011_185813.0;-0.789;0.340;10.266;0.059;-0.046;-0.003;161.4;-31.500;4.875;-59.494;5.0;-32.91224;-60.68709;30.4;33.1
20211011_185813.5;-0.116;0.376;9.791;0.035;-0.002;0.002;161.4;-30.450;3.431;-61.388;5.0;-32.91233;-60.68706;30.3;37.2
20211011_185814.0;-0.430;-0.585;9.573;0.028;0.017;0.001;179.6;-32.381;5.831;-60.094;5.0;-32.91233;-60.68706;30.3;37.2
20211011_185814.5;-0.059;-1.243;9.693;0.001;-0.020;-0.005;179.6;-32.213;4.894;-59.944;5.0;-32.91242;-60.68703;30.3;40.2
20211011_185815.0;-0.265;-0.843;9.032;0.004;-0.002;-0.012;179.6;-32.213;4.894;-59.175;5.0;-32.91242;-60.68703;30.3;40.2
20211011_185815.5;-0.351;-0.863;10.400;0.005;-0.025;0.006;179.6;-32.381;5.531;-60.881;5.0;-32.91252;-60.68700;30.2;39.8
20211011_185816.0;-0.085;-0.800;10.014;0.019;-0.008;0.003;179.6;-32.550;6.469;-60.263;5.0;-32.91252;-60.68700;30.2;39.8
20211011_185816.5;-0.372;-0.704;9.987;-0.007;-0.044;-0.009;141.8;-32.288;7.256;-60.263;5.0;-32.91262;-60.68697;30.1;39.4
20211011_185817.0;-0.190;-0.836;9.901;-0.040;0.027;0.008;127.6;-32.700;6.638;-60.863;5.0;-32.91262;-60.68697;30.1;39.4
20211011_185817.5;-0.198;-0.853;10.242;-0.015;0.006;0.002;127.6;-31.688;6.300;-61.369;5.0;-32.91272;-60.68696;28.2;39.8
20211011_185818.0;-0.250;-0.690;9.877;-0.025;0.006;0.006;143.4;-32.250;6.000;-60.263;5.0;-32.91272;-60.68696;28.2;39.8
20211011_185818.5;-0.435;-0.733;9.188;-0.032;-0.000;-0.000;143.4;-33.094;5.850;-59.306;5.0;-32.91281;-60.68693;28.2;39.2
20211011_185819.0;0.359;-0.953;9.736;-0.001;0.026;0.006;161.1;-32.400;6.319;-60.563;5.0;-32.91281;-60.68693;28.2;39.2
20211011_185819.5;-0.078;-0.733;8.933;0.018;-0.011;-0.009;161.1;-31.931;5.044;-59.325;5.0;-32.91291;-60.68689;29.1;38.4
20211011_185820.0;0.090;-0.922;9.865;-0.004;-0.013;-0.004;161.1;-33.413;6.638;-59.775;5.0;-32.91291;-60.68689;29.1;38.4
20211011_185820.5;-0.751;-0.599;9.588;-0.009;-0.010;-0.013;179.2;-32.550;6.788;-60.263;5.0;-32.91300;-60.68686;29.4;38.2
20211011_185821.0;-0.130;-1.006;9.963;-0.017;0.036;0.007;179.2;-33.713;6.806;-59.925;5.0;-32.91300;-60.68686;29.4;38.2
20211011_185821.5;-0.090;-0.616;9.592;0.006;-0.040;-0.004;179.2;-31.650;5.044;-59.025;5.0;-32.91309;-60.68685;28.1;37.5
20211011_185822.0;-0.142;-0.872;9.676;-0.012;0.019;0.006;142.6;-32.625;3.956;-60.094;5.0;-32.91309;-60.68685;28.1;37.5
20211011_185822.5;-0.573;-0.791;10.282;0.001;-0.012;-0.020;127.8;-32.400;6.319;-59.006;5.0;-32.91318;-60.68681;27.0;37.4
20211011_185823.0;0.198;-0.831;10.189;0.018;0.005;-0.000;113.8;-31.800;5.194;-61.819;5.0;-32.91318;-60.68681;27.0;37.4
20211011_185823.5;-0.145;-1.066;10.759;0.027;-0.035;0.007;113.8;-33.694;6.488;-59.456;5.0;-32.91327;-60.68679;26.6;37.2
20211011_185824.0;-0.116;-0.975;9.760;-0.038;-0.024;-0.008;113.8;-33.113;5.850;-60.544;5.0;-32.91327;-60.68679;26.6;37.2
20211011_185824.5;0.138;-1.167;9.772;0.010;0.038;-0.009;127.2;-32.231;5.213;-60.731;5.0;-32.91336;-60.68677;25.2;36.2
20211011_185825.0;0.035;-1.286;10.028;0.008;0.011;-0.021;127.2;-31.256;6.619;-60.131;5.0;-32.91336;-60.68677;25.2;36.2
20211011_185825.5;-0.279;-1.274;9.487;-0.001;0.003;-0.003;127.2;-31.069;4.875;-60.750;5.0;-32.91344;-60.68674;24.8;34.8
20211011_185826.0;-0.545;-0.398;10.148;0.002;-0.015;0.009;127.2;-30.506;5.494;-59.363;5.0;-32.91344;-60.68674;24.8;34.8
20211011_185826.5;-0.300;0.177;9.437;-0.023;0.015;0.014;115.6;-32.213;4.575;-60.263;5.0;-32.91352;-60.68672;24.6;33.4
20211011_185827.0;0.056;-0.523;10.066;0.015;0.015;0.002;103.2;-33.431;7.125;-60.075;5.0;-32.91352;-60.68672;24.6;33.4
20211011_185827.5;0.035;-0.609;9.420;-0.040;-0.037;-0.015;103.2;-31.819;5.981;-59.175;5.0;-32.91361;-60.68670;24.9;35.7
20211011_185828.0;0.020;-0.829;9.973;0.006;0.028;-0.008;103.2;-32.531;5.681;-59.944;5.0;-32.91361;-60.68670;24.9;35.7
20211011_185828.5;-0.724;-0.630;9.422;-0.019;-0.000;0.005;103.2;-31.969;6.300;-60.113;5.0;-32.91371;-60.68667;25.3;36.8
20211011_185829.0;-0.255;-1.021;9.746;0.005;0.001;0.006;115.4;-31.650;5.513;-59.813;5.0;-32.91371;-60.68667;25.3;36.8
20211011_185829.5;-0.322;-1.399;9.669;-0.001;0.029;0.024;128.7;-32.269;6.469;-60.263;5.0;-32.91380;-60.68664;25.8;37.0
20211011_185830.0;-0.595;-1.440;9.552;0.012;-0.048;0.027;144.1;-28.913;5.138;-58.481;5.0;-32.91380;-60.68664;25.8;37.0
20211011_185830.5;-0.468;-0.961;9.918;0.028;0.016;0.054;144.1;-32.306;3.469;-59.006;5.0;-32.91389;-60.68661;26.3;35.1
20211011_185831.0;-0.672;-1.095;9.142;-0.023;-0.018;0.047;144.1;-33.844;6.338;-59.756;5.0;-32.91389;-60.68661;26.3;35.1
20211011_185831.5;-0.308;-1.385;9.564;-0.037;-0.010;0.028;160.6;-33.038;3.488;-58.988;5.0;-32.91397;-60.68658;26.4;32.9
20211011_185832.0;-0.202;-1.881;9.777;0.031;-0.020;0.020;160.6;-33.150;2.531;-59.925;5.0;-32.91397;-60.68658;26.4;32.9
20211011_185832.5;-0.643;-1.866;9.949;-0.020;-0.016;0.009;160.6;-31.631;5.813;-47.381;5.0;-32.91405;-60.68655;26.4;31.0
20211011_185833.0;0.087;-1.502;10.168;-0.034;0.006;0.028;160.6;-35.213;9.206;-59.100;5.0;-32.91405;-60.68655;26.4;31.0
20211011_185833.5;-0.514;-1.581;9.978;-0.093;-0.070;-0.004;160.6;-32.306;7.575;-62.588;5.0;-32.91411;-60.68652;25.9;27.8
20211011_185834.0;-0.111;-1.013;9.942;0.014;-0.022;0.028;160.6;-33.038;8.381;-60.244;5.0;-32.91411;-60.68652;25.9;27.8
20211011_185834.5;0.402;-1.238;8.098;-0.020;-0.043;0.051;178.8;-32.288;7.256;-62.588;5.0;-32.91417;-60.68649;26.6;25.6
20211011_185835.0;0.056;-1.505;9.152;-0.063;0.057;0.029;178.8;-37.744;2.775;-60.750;5.0;-32.91417;-60.68649;26.6;25.6
20211011_185835.5;-0.365;-2.192;9.884;-0.004;-0.023;0.020;178.8;-36.844;6.075;-59.850;5.0;-32.91422;-60.68646;25.6;23.4
20211011_185836.0;-0.492;-2.101;9.760;0.003;-0.090;0.007;178.8;-36.281;6.694;-61.256;5.0;-32.91422;-60.68646;25.6;23.4
20211011_185836.5;-0.612;-1.507;9.317;0.019;-0.029;-0.002;178.8;-37.594;6.881;-63.244;5.0;-32.91427;-60.68643;26.3;19.1
20211011_185837.0;-0.578;-0.953;9.252;0.010;-0.011;0.013;178.8;-41.419;5.213;-60.656;5.0;-32.91427;-60.68643;26.3;19.1
20211011_185837.5;-0.209;-1.023;10.223;-0.031;-0.046;0.029;178.8;-40.894;2.044;-65.325;5.0;-32.91430;-60.68641;27.2;15.3
20211011_185838.0;-0.456;-1.320;9.346;0.026;-0.033;0.027;178.8;-37.256;0.544;-59.981;5.0;-32.91430;-60.68641;27.2;15.3
20211011_185838.5;-0.786;-1.426;9.937;0.005;-0.007;0.030;178.8;-34.594;2.569;-61.744;5.0;-32.91434;-60.68639;26.7;14.0
20211011_185839.0;-0.068;-0.975;10.347;0.039;-0.008;0.036;178.8;-35.700;1.481;-60.938;5.0;-32.91434;-60.68639;26.7;14.0
20211011_185839.5;-0.356;-0.767;9.360;0.024;-0.076;0.011;178.8;-34.913;-0.600;-55.988;5.0;-32.91437;-60.68637;27.4;13.7
20211011_185840.0;-1.395;-0.604;10.158;0.081;0.081;0.034;178.8;-33.581;-6.000;-49.481;5.0;-32.91437;-60.68637;27.4;13.7
20211011_185840.5;0.145;-0.949;10.199;-0.056;0.066;0.013;162.1;-24.638;3.788;-32.175;5.0;-32.91441;-60.68636;27.8;12.7
20211011_185841.0;-0.339;-1.164;9.801;0.027;-0.027;-0.011;162.1;-19.538;10.819;-32.775;5.0;-32.91441;-60.68636;27.8;12.7
20211011_185841.5;-0.166;-1.871;9.705;-0.014;0.035;0.003;162.1;-18.563;11.588;-37.913;5.0;-32.91442;-60.68634;27.4;10.3
20211011_185842.0;-0.056;0.235;10.074;-0.001;0.063;0.002;162.1;-15.769;13.594;-40.313;5.0;-32.91442;-60.68634;27.4;10.3
20211011_185842.5;0.209;0.654;9.449;0.044;0.014;0.010;181.2;-12.469;13.538;-41.944;5.0;-32.91445;-60.68632;27.2;9.1
20211011_185843.0;-0.078;0.340;9.391;-0.027;0.057;0.013;181.2;-12.544;15.450;-50.794;5.0;-32.91445;-60.68632;27.2;9.1
20211011_185843.5;-0.576;-0.117;9.985;-0.015;0.009;-0.009;181.2;-19.388;12.881;-58.706;5.0;-32.91447;-60.68631;27.0;11.5
20211011_185844.0;-0.847;-1.143;9.513;0.016;0.046;0.017;201.3;-31.069;10.088;-60.131;5.0;-32.91447;-60.68631;27.0;11.5
20211011_185844.5;0.030;-0.894;9.382;-0.037;0.017;-0.001;201.3;-35.625;8.269;-60.488;5.0;-32.91450;-60.68628;26.5;14.5
20211011_185845.0;-0.763;0.591;9.940;0.020;-0.058;-0.008;201.3;-36.188;8.119;-60.956;5.0;-32.91450;-60.68628;26.5;14.5
20211011_185845.5;0.193;0.658;9.518;-0.004;-0.025;0.004;201.3;-36.600;7.331;-61.406;5.0;-32.91454;-60.68626;27.9;15.4
20211011_185846.0;-0.008;0.704;9.051;0.032;0.015;0.008;201.3;-35.850;6.525;-61.725;5.0;-32.91454;-60.68626;27.9;15.4
20211011_185846.5;-0.265;-0.086;9.492;-0.007;0.012;0.002;201.3;-37.500;8.606;-60.450;5.0;-32.91457;-60.68623;28.0;19.4
20211011_185847.0;-0.672;-0.141;9.418;-0.014;-0.011;-0.002;201.3;-38.044;7.669;-60.900;5.0;-32.91457;-60.68623;28.0;19.4
20211011_185847.5;-0.214;-0.604;9.410;0.015;-0.034;-0.000;201.3;-38.606;7.219;-61.819;5.0;-32.91462;-60.68619;28.8;22.5
20211011_185848.0;0.567;-1.107;8.447;0.036;-0.018;0.005;201.3;-38.213;8.306;-61.519;5.0;-32.91462;-60.68619;28.8;22.5
20211011_185848.5;-0.533;-1.085;9.523;0.002;0.012;-0.020;201.3;-37.444;6.713;-62.625;5.0;-32.91466;-60.68615;28.6;22.9
20211011_185849.0;-0.054;-0.077;9.286;0.050;-0.051;-0.027;201.3;-39.019;6.581;-60.563;5.0;-32.91466;-60.68615;28.6;22.9
20211011_185849.5;-0.454;-0.163;9.753;-0.025;0.065;-0.020;201.3;-37.425;6.394;-59.981;5.0;-32.91471;-60.68611;29.2;22.3
20211011_185850.0;-0.430;-0.057;10.678;-0.057;0.030;0.004;201.3;-36.863;6.544;-60.150;5.0;-32.91471;-60.68611;29.2;22.3
20211011_185850.5;-0.387;0.481;10.139;0.034;-0.021;-0.010;201.3;-37.575;6.563;-60.919;5.0;-32.91476;-60.68608;29.1;24.0
20211011_185851.0;0.035;-0.551;10.153;-0.075;0.005;0.010;183.0;-36.019;7.163;-61.256;5.0;-32.91482;-60.68603;28.0;27.3
20211011_185851.5;-0.272;-0.956;10.086;0.003;0.092;0.026;183.0;-37.444;6.713;-60.769;5.0;-32.91482;-60.68603;28.0;27.3
20211011_185852.0;-0.981;-0.592;9.669;-0.005;0.073;0.046;183.0;-36.769;8.288;-61.556;5.0;-32.91488;-60.68599;28.0;27.0
20211011_185852.5;-0.938;-0.002;10.059;0.035;0.030;0.035;183.0;-37.463;7.500;-59.981;5.0;-32.91488;-60.68599;28.0;27.0
20211011_185853.0;0.080;-0.702;9.743;-0.063;0.005;0.006;183.0;-38.831;10.050;-61.350;5.0;-32.91494;-60.68595;27.9;29.1
20211011_185853.5;-0.413;0.165;9.137;-0.075;-0.069;0.012;183.0;-41.831;9.469;-59.888;5.0;-32.91494;-60.68595;27.9;29.1
20211011_185854.0;-0.669;-0.245;9.906;0.043;-0.033;0.012;203.6;-38.663;4.688;-59.794;5.0;-32.91500;-60.68590;27.6;30.3
20211011_185854.5;-0.760;0.017;9.841;-0.002;-0.019;0.010;203.6;-38.775;8.475;-60.581;5.0;-32.91500;-60.68590;27.6;30.3
20211011_185855.0;-0.530;-0.230;9.750;-0.015;-0.036;0.017;203.6;-40.463;7.406;-58.988;5.0;-32.91507;-60.68585;28.0;32.3
20211011_185855.5;-0.375;0.184;8.732;-0.048;-0.072;0.042;203.6;-39.281;5.644;-60.713;5.0;-32.91507;-60.68585;28.0;32.3
20211011_185856.0;-0.767;0.074;9.444;0.015;-0.007;0.014;203.6;-38.888;7.538;-58.856;5.0;-32.91513;-60.68579;27.6;32.7
20211011_185856.5;0.572;-0.968;9.465;0.081;-0.054;-0.004;203.6;-38.606;7.200;-59.963;5.0;-32.91513;-60.68579;27.6;32.7
20211011_185857.0;-0.890;-0.317;7.618;0.013;-0.067;-0.043;203.6;-37.613;8.138;-58.275;5.0;-32.91520;-60.68574;28.4;32.7
20211011_185857.5;-0.150;-1.016;10.752;0.025;-0.030;-0.013;203.6;-40.031;7.238;-59.925;5.0;-32.91520;-60.68574;28.4;32.7
20211011_185858.0;0.327;-0.482;8.744;-0.001;0.070;-0.003;203.6;-38.138;5.944;-59.663;5.0;-32.91527;-60.68568;29.5;31.7
20211011_185858.5;-0.669;-0.949;9.521;-0.043;0.003;-0.002;157.3;-38.344;8.156;-59.025;5.0;-32.91527;-60.68568;29.5;31.7
20211011_185859.0;-0.399;-0.587;9.959;0.023;0.031;0.013;139.4;-37.856;6.413;-59.981;5.0;-32.91534;-60.68563;30.0;31.8
20211011_185859.5;-0.248;-0.793;9.901;0.003;-0.024;-0.005;124.4;-38.063;8.156;-60.131;5.0;-32.91534;-60.68563;30.0;31.8
20211011_185900.0;-0.061;-1.123;9.822;-0.007;0.047;0.007;124.4;-36.919;8.438;-60.619;5.0;-32.91541;-60.68558;30.5;31.6
20211011_185901.0;-0.516;-0.910;9.051;0.005;0.012;-0.006;139.1;-37.875;7.200;-60.750;5.0;-32.91541;-60.68558;30.5;31.6
20211011_185901.5;-0.447;-1.006;9.580;-0.009;-0.012;-0.006;155.7;-37.913;8.306;-61.538;5.0;-32.91547;-60.68553;31.6;29.5
20211011_185902.0;-0.348;-1.145;9.877;-0.001;0.014;0.001;155.7;-39.619;7.538;-59.944;5.0;-32.91547;-60.68553;31.6;29.5
20211011_185902.5;-0.633;-0.851;9.951;0.003;-0.052;-0.004;155.7;-37.594;7.350;-59.044;5.0;-32.91553;-60.68548;31.3;28.2
20211011_185903.0;-0.423;-0.913;9.161;-0.012;-0.008;0.002;155.7;-36.863;6.863;-60.150;5.0;-32.91553;-60.68548;31.3;28.2
20211011_185903.5;-0.408;-0.654;10.515;0.095;0.030;0.020;139.3;-38.063;8.456;-60.131;5.0;-32.91558;-60.68542;32.1;27.0
20211011_185904.0;-0.358;-0.669;8.538;0.072;0.005;-0.022;125.6;-39.619;7.538;-60.394;5.0;-32.91558;-60.68542;32.1;27.0
20211011_185904.5;-0.530;-0.882;10.026;-0.030;-0.020;-0.008;102.2;-37.331;7.669;-60.919;5.0;-32.91564;-60.68537;32.9;26.9
20211011_185905.0;-0.700;-0.623;10.242;0.017;0.004;-0.001;102.2;-38.569;6.413;-58.088;5.0;-32.91564;-60.68537;32.9;26.9
20211011_185905.5;-0.830;-0.470;9.592;-0.031;0.004;-0.000;115.8;-37.481;8.288;-60.450;5.0;-32.91569;-60.68533;32.8;26.7
20211011_185906.0;-0.482;-0.525;10.728;0.010;-0.014;0.005;129.7;-38.044;7.669;-59.344;5.0;-32.91569;-60.68533;32.8;26.7
20211011_185906.5;-0.703;-0.460;8.739;0.053;-0.083;-0.005;144.7;-37.613;7.350;-62.156;5.0;-32.91575;-60.68528;32.9;27.1
20211011_185907.0;-0.303;-0.113;9.877;0.044;-0.011;-0.010;162.6;-37.444;6.713;-60.450;5.0;-32.91575;-60.68528;32.9;27.1
20211011_185907.5;-0.363;-0.286;10.278;0.039;0.004;0.005;162.6;-39.450;6.600;-60.563;5.0;-32.91581;-60.68524;32.6;28.0
20211011_185908.0;-0.147;-0.697;9.810;0.004;-0.012;-0.002;162.6;-37.631;8.138;-62.156;5.0;-32.91581;-60.68524;32.6;28.0
20211011_185908.5;0.205;-0.860;10.086;0.031;-0.036;-0.010;162.6;-39.038;7.688;-59.794;5.0;-32.91587;-60.68519;32.7;29.4
20211011_185909.0;0.032;-1.021;10.177;-0.016;0.015;0.005;162.6;-36.713;6.394;-60.769;5.0;-32.91587;-60.68519;32.7;29.4
20211011_185909.5;-0.317;-0.216;9.379;0.034;0.001;0.001;162.6;-38.325;7.369;-59.813;5.0;-32.91593;-60.68514;32.9;29.6
20211011_185910.0;-0.473;-0.348;9.396;0.001;-0.044;-0.006;162.6;-38.250;9.881;-59.194;5.0;-32.91593;-60.68514;32.9;29.6
20211011_185910.5;-0.645;-0.925;9.877;0.018;0.031;0.007;162.6;-38.006;6.881;-59.344;5.0;-32.91599;-60.68509;32.3;30.0
