Timestamp;Accel_x;Accel_y;Accel_z;Gyro_x;Gyro_y;Gyro_z;Light;Magnetic_x;Magnetic_y;Magnetic_z;Proximity;Latitude;Longitude;Elevation;Speed
20211011_175802.0;-0.348;-1.021;9.815;-0.003;-0.013;0.004;410.5;-47.831;18.263;-58.669;5.0;-32.95812;-60.63654;52.8;29.1
20211011_175802.5;-0.255;-0.762;9.657;0.005;0.007;0.005;410.5;-48.394;17.963;-57.263;5.0;-32.95813;-60.63644;53.6;30.1
20211011_175803.0;0.049;-0.755;10.256;-0.005;0.028;-0.001;410.5;-48.469;15.900;-60.525;5.0;-32.95813;-60.63644;53.6;30.1
20211011_175803.5;-0.111;-1.522;10.292;-0.027;0.020;0.007;410.5;-48.975;18.281;-59.419;5.0;-32.95815;-60.63635;51.9;30.1
20211011_175804.0;-0.499;-1.013;9.925;-0.023;-0.014;-0.005;410.5;-48.975;18.281;-59.419;5.0;-32.95815;-60.63635;51.9;30.1
20211011_175804.5;-1.759;-0.736;9.889;-0.048;-0.022;0.002;372.5;-47.681;18.413;-58.838;5.0;-32.95816;-60.63627;51.2;29.2
20211011_175805.0;-0.447;-0.975;10.309;-0.008;-0.013;0.019;372.5;-48.788;16.856;-58.800;5.0;-32.95816;-60.63627;51.2;29.2
20211011_175805.5;-0.262;-1.238;10.788;0.020;0.055;0.042;372.5;-48.394;17.963;-59.588;5.0;-32.95818;-60.63618;50.6;27.9
20211011_175806.0;-0.504;-0.999;9.621;-0.008;-0.003;0.012;372.5;-50.456;19.406;-60.488;5.0;-32.95818;-60.63618;50.6;27.9
20211011_175806.5;-0.526;-1.286;10.090;0.008;-0.002;0.016;372.5;-50.419;18.619;-58.613;5.0;-32.95819;-60.63610;49.9;26.9
20211011_175807.0;-0.621;-1.140;9.080;-0.008;-0.023;0.012;372.5;-48.094;17.644;-59.138;5.0;-32.95819;-60.63610;49.9;26.9
20211011_175807.5;-0.746;-1.378;10.263;0.013;-0.030;0.018;420.4;-49.106;17.963;-58.800;5.0;-32.95820;-60.63603;48.3;25.7
20211011_175808.0;-0.403;-1.126;9.686;-0.010;0.000;0.018;471.1;-48.600;20.175;-58.669;5.0;-32.95820;-60.63603;48.3;25.7
20211011_175808.5;-0.140;-1.579;9.525;0.021;-0.012;0.012;471.1;-48.844;18.750;-59.119;5.0;-32.95821;-60.63596;49.5;24.0
20211011_175809.0;-0.339;-1.646;9.279;-0.016;-0.008;-0.025;471.1;-48.544;17.813;-61.613;5.0;-32.95822;-60.63589;47.3;22.1
20211011_175809.5;-0.073;-2.012;9.190;0.025;0.011;-0.025;471.1;-48.788;16.856;-59.888;5.0;-32.95822;-60.63589;47.3;22.1
20211011_175810.0;-0.193;-2.149;9.659;-0.005;0.001;-0.024;471.1;-48.225;17.006;-59.438;5.0;-32.95823;-60.63582;45.7;19.3
20211011_175810.5;-0.255;-2.096;9.626;0.006;-0.023;-0.027;471.1;-49.069;16.556;-59.100;5.0;-32.95823;-60.63582;45.7;19.3
20211011_175811.0;-0.133;-2.022;9.465;-0.002;-0.002;-0.022;471.1;-47.044;16.200;-59.006;5.0;-32.95824;-60.63577;45.8;15.0
20211011_175811.5;-0.348;-2.333;9.906;0.009;-0.004;-0.016;471.1;-49.725;19.088;-59.719;5.0;-32.95824;-60.63577;45.8;15.0
20211011_175812.0;-0.286;-1.802;9.432;0.001;0.000;-0.010;471.1;-48.919;16.238;-60.206;5.0;-32.95824;-60.63576;46.2;9.4
20211011_175812.5;-0.399;-1.732;9.892;0.005;0.008;-0.001;471.1;-49.650;17.025;-58.631;5.0;-32.95824;-60.63576;46.2;9.4
20211011_175813.0;-0.303;-1.502;9.525;0.001;0.004;-0.003;471.1;-49.706;18.619;-59.400;5.0;-32.95824;-60.63574;46.0;6.2
20211011_175813.5;-0.413;-1.656;9.777;0.003;0.002;-0.001;471.1;-48.919;16.238;-58.950;5.0;-32.95824;-60.63574;46.0;6.2
20211011_175814.0;-0.291;-1.366;9.669;0.001;-0.005;-0.005;471.1;-49.125;18.750;-59.119;5.0;-32.95824;-60.63575;42.9;2.6
20211011_175814.5;-0.382;-1.097;9.786;0.001;-0.001;-0.001;471.1;-49.538;17.663;-59.100;5.0;-32.95824;-60.63575;42.9;2.6
20211011_175815.0;-0.372;-0.724;9.825;0.001;0.001;0.002;471.1;-49.519;16.875;-60.338;5.0;-32.95824;-60.63573;44.6;1.9
20211011_175815.5;-0.332;-0.769;9.856;-0.001;-0.000;0.001;471.1;-49.800;17.344;-59.100;5.0;-32.95824;-60.63573;44.6;1.9
20211011_175816.0;-0.284;-0.786;9.765;-0.001;0.001;0.000;471.1;-47.644;16.838;-59.138;5.0;-32.95824;-60.63573;45.7;1.7
20211011_175817.0;-0.327;-0.779;9.875;0.000;-0.000;0.000;471.1;-47.475;15.881;-59.775;5.0;-32.95824;-60.63573;45.7;1.7
20211011_175817.5;-0.344;-0.743;9.748;0.001;-0.000;-0.000;471.1;-49.331;15.450;-59.419;5.0;-32.95823;-60.63571;48.3;2.6
20211011_175818.0;-0.281;-0.788;9.827;-0.000;-0.000;0.000;471.1;-48.469;15.900;-59.438;5.0;-32.95823;-60.63571;48.3;2.6
20211011_175818.5;-0.286;-0.774;9.793;-0.001;0.001;0.001;471.1;-48.488;15.900;-60.994;5.0;-32.95823;-60.63570;48.7;2.9
20211011_175819.0;-0.296;-0.791;9.849;-0.000;-0.000;-0.001;471.1;-48.750;15.281;-59.888;5.0;-32.95823;-60.63570;48.7;2.9
20211011_175819.5;-0.363;-0.755;9.851;-0.000;-0.001;-0.001;471.1;-49.388;17.813;-60.506;5.0;-32.95825;-60.63565;48.9;4.9
20211011_175820.0;-0.243;-0.784;9.767;0.001;-0.001;-0.001;471.1;-49.069;16.556;-60.356;5.0;-32.95825;-60.63565;48.9;4.9
20211011_175820.5;-0.300;-0.776;9.851;-0.000;-0.001;0.000;471.1;-48.019;15.263;-59.606;5.0;-32.95823;-60.63572;51.9;0.0
20211011_175821.0;-0.353;-0.764;9.880;-0.000;-0.001;-0.001;471.1;-49.519;17.344;-59.869;5.0;-32.95823;-60.63572;51.9;0.0
20211011_175821.5;-0.346;-0.791;9.877;0.001;0.002;0.002;471.1;-47.813;17.475;-61.013;5.0;-32.95823;-60.63570;52.7;0.0
20211011_175822.0;-0.279;-0.740;9.652;0.001;-0.002;-0.001;471.1;-50.250;17.363;-60.319;5.0;-32.95823;-60.63570;52.7;0.0
20211011_175822.5;-0.250;-0.769;9.700;-0.001;0.001;0.000;471.1;-49.856;19.238;-59.100;5.0;-32.95823;-60.63571;51.2;0.0
20211011_175823.0;-0.289;-0.731;9.729;-0.001;-0.000;-0.001;471.1;-46.575;14.925;-59.625;5.0;-32.95823;-60.63571;51.2;0.0
20211011_175823.5;-0.312;-0.738;9.825;-0.001;0.001;-0.001;471.1;-50.813;17.044;-60.150;5.0;-32.95822;-60.63571;53.1;0.0
20211011_175824.0;-0.300;-0.297;9.679;0.007;-0.002;0.002;471.1;-51.000;18.469;-59.850;5.0;-32.95822;-60.63571;53.1;0.0
20211011_175824.5;-0.284;-0.151;9.753;-0.002;0.002;0.003;471.1;-51.656;16.913;-60.300;5.0;-32.95822;-60.63572;53.4;0.0
20211011_175825.0;-0.348;-0.817;9.657;-0.008;0.002;0.001;471.1;-49.500;16.556;-61.125;5.0;-32.95822;-60.63572;53.4;0.0
20211011_175825.5;-0.356;-0.824;9.805;-0.003;0.006;0.003;471.1;-50.175;14.981;-59.850;5.0;-32.95822;-60.63571;53.6;1.6
20211011_175826.0;-0.308;-0.355;9.650;0.004;-0.003;-0.002;471.1;-48.769;15.750;-61.125;5.0;-32.95822;-60.63571;53.6;1.6
20211011_175826.5;-0.262;-0.086;9.901;0.001;0.009;0.000;471.1;-45.638;16.969;-59.813;5.0;-32.95822;-60.63571;54.1;1.6
20211011_175827.0;-0.205;0.532;9.693;0.002;0.010;0.004;524.2;-46.163;15.244;-61.200;5.0;-32.95822;-60.63571;54.1;1.6
20211011_175827.5;-0.212;0.596;9.872;0.004;-0.002;0.007;524.2;-45.356;17.438;-60.600;5.0;-32.95822;-60.63569;53.7;4.3
20211011_175828.0;-0.348;0.555;10.259;0.020;-0.010;0.001;524.2;-46.706;19.200;-58.388;5.0;-32.95822;-60.63569;53.7;4.3
20211011_175828.5;-0.198;0.515;9.784;0.007;0.006;-0.008;524.2;-46.013;15.075;-61.050;5.0;-32.95823;-60.63567;53.3;8.0
20211011_175829.0;-0.140;0.694;9.949;0.003;0.019;0.001;586.2;-48.525;17.494;-60.525;5.0;-32.95823;-60.63567;53.3;8.0
20211011_175829.5;-0.109;0.587;9.652;-0.002;-0.014;0.001;586.2;-47.119;18.244;-60.563;5.0;-32.95823;-60.63563;53.2;12.3
20211011_175830.0;-0.272;-0.927;9.741;0.002;0.023;-0.003;586.2;-48.075;16.838;-60.375;5.0;-32.95823;-60.63563;53.2;12.3
20211011_175830.5;-0.004;0.730;9.303;0.032;-0.003;-0.003;652.8;-46.800;16.988;-62.119;5.0;-32.95824;-60.63559;53.4;15.2
20211011_175831.0;-0.243;0.900;8.871;0.004;0.033;-0.007;652.8;-48.375;17.325;-60.375;5.0;-32.95824;-60.63559;53.4;15.2
20211011_175831.5;0.164;0.239;10.701;0.013;0.011;-0.001;652.8;-47.494;16.688;-60.544;5.0;-32.95825;-60.63553;53.0;17.6
20211011_175832.0;-0.571;0.917;9.281;0.014;-0.043;-0.007;652.8;-47.381;17.625;-61.163;5.0;-32.95825;-60.63553;53.0;17.6
20211011_175832.5;-0.128;-0.034;9.650;0.039;0.019;0.001;652.8;-48.769;16.069;-59.888;5.0;-32.95826;-60.63547;52.6;21.2
20211011_175833.0;-0.830;-0.274;9.786;0.012;-0.005;0.021;652.8;-47.625;16.519;-59.925;5.0;-32.95826;-60.63547;52.6;21.2
20211011_175833.5;-0.396;-0.642;9.401;0.015;-0.042;-0.009;652.8;-49.331;15.919;-58.631;5.0;-32.95828;-60.63541;51.9;23.2
20211011_175834.0;-0.277;-0.384;10.208;-0.081;-0.020;-0.009;652.8;-46.781;16.669;-59.475;5.0;-32.95828;-60.63541;51.9;23.2
20211011_175834.5;-0.375;0.283;9.391;0.028;-0.011;-0.005;582.2;-47.400;18.413;-59.156;5.0;-32.95829;-60.63534;51.6;24.0
20211011_175835.0;-0.171;0.342;10.168;0.015;0.003;-0.009;518.3;-46.200;16.500;-61.200;5.0;-32.95829;-60.63534;51.6;24.0
20211011_175835.5;-0.231;0.579;9.822;0.004;-0.022;-0.018;470.0;-48.225;17.006;-60.525;5.0;-32.95830;-60.63526;52.3;27.0
20211011_175836.0;-0.245;0.769;9.516;0.005;0.007;0.007;421.2;-48.788;16.538;-60.356;5.0;-32.95830;-60.63526;52.3;27.0
20211011_175836.5;-0.770;0.570;9.169;-0.012;0.011;0.001;421.2;-50.100;17.513;-61.256;5.0;-32.95832;-60.63517;52.2;31.2
20211011_175837.0;-0.004;-0.839;9.621;0.010;0.002;0.006;379.2;-48.825;17.644;-61.144;5.0;-32.95832;-60.63517;52.2;31.2
20211011_175837.5;-0.099;0.891;9.777;0.025;0.006;0.005;379.2;-48.806;16.856;-61.913;5.0;-32.95834;-60.63507;52.2;34.4
20211011_175838.0;-0.265;0.498;9.937;0.010;0.017;0.012;421.5;-49.838;17.981;-60.656;5.0;-32.95834;-60.63507;52.2;34.4
20211011_175838.5;-0.300;-0.348;9.810;-0.001;-0.000;0.007;421.5;-48.563;18.600;-60.525;5.0;-32.95837;-60.63497;51.9;35.6
20211011_175839.0;0.699;-0.599;8.522;-0.006;-0.030;0.004;421.5;-47.663;17.306;-60.394;5.0;-32.95837;-60.63497;51.9;35.6
20211011_175839.5;0.028;-0.937;9.293;-0.004;0.004;-0.001;469.5;-48.356;16.856;-61.463;5.0;-32.95839;-60.63486;52.5;37.9
20211011_175840.0;0.004;-0.743;9.738;0.001;0.017;-0.003;469.5;-49.388;17.494;-63.150;5.0;-32.95839;-60.63486;52.5;37.9
20211011_175840.5;-0.384;-0.757;9.899;0.012;-0.015;0.001;469.5;-48.225;16.688;-61.613;5.0;-32.95841;-60.63474;52.1;38.5
20211011_175841.0;-0.217;-0.843;10.172;-0.027;0.022;0.007;419.5;-47.325;15.731;-61.950;5.0;-32.95841;-60.63474;52.1;38.5
20211011_175841.5;-0.356;-0.807;9.446;0.012;0.008;0.015;380.1;-48.938;16.706;-60.206;5.0;-32.95843;-60.63464;52.4;38.6
20211011_175842.0;-0.138;-0.678;9.899;0.019;0.005;-0.011;424.5;-51.881;14.550;-59.813;5.0;-32.95843;-60.63464;52.4;38.6
20211011_175842.5;-0.547;-0.920;9.008;-0.018;-0.026;-0.015;483.9;-50.831;17.531;-60.469;5.0;-32.95846;-60.63452;52.1;39.2
20211011_175843.0;-0.023;-0.944;9.808;-0.001;-0.001;-0.014;540.2;-49.069;16.856;-59.569;5.0;-32.95846;-60.63452;52.1;39.2
20211011_175843.5;-0.152;-0.637;8.907;0.018;0.026;-0.001;603.4;-48.956;17.813;-60.206;5.0;-32.95847;-60.63440;52.0;39.2
20211011_175844.0;-0.344;-0.597;9.346;-0.031;-0.018;-0.005;603.4;-47.663;17.625;-61.931;5.0;-32.95847;-60.63440;52.0;39.2
20211011_175844.5;-0.382;-0.506;9.849;0.007;0.005;-0.003;603.4;-46.781;16.988;-60.244;5.0;-32.95849;-60.63427;51.7;39.8
20211011_175845.0;-0.253;-0.309;10.004;-0.010;0.013;0.012;603.4;-49.088;16.856;-60.356;5.0;-32.95849;-60.63427;51.7;39.8
20211011_175845.5;-0.557;-0.343;9.248;0.011;-0.030;-0.003;603.4;-48.506;17.006;-58.650;5.0;-32.95853;-60.63415;53.0;41.3
20211011_175846.0;-0.272;-0.209;8.763;-0.028;-0.021;0.000;671.3;-47.850;19.050;-55.875;5.0;-32.95853;-60.63415;53.0;41.3
20211011_175846.5;0.205;-0.410;9.829;-0.020;0.022;0.007;671.3;-48.788;16.856;-58.331;5.0;-32.95855;-60.63405;52.2;41.7
20211011_175847.0;-0.346;-0.863;10.452;0.022;0.019;0.005;671.3;-48.525;17.794;-60.206;5.0;-32.95855;-60.63405;52.2;41.7
20211011_175847.5;-0.636;-0.743;9.623;0.017;-0.024;-0.008;606.1;-47.813;17.475;-60.225;5.0;-32.95856;-60.63393;50.0;42.3
20211011_175848.0;-0.444;-0.604;9.501;-0.000;0.023;-0.013;540.3;-48.225;17.475;-58.669;5.0;-32.95858;-60.63379;49.6;43.5
20211011_175848.5;-0.111;-1.682;10.393;-0.000;0.040;0.023;540.3;-48.806;17.325;-59.588;5.0;-32.95858;-60.63379;49.6;43.5
20211011_175849.0;-0.111;-1.035;9.734;-0.003;-0.023;0.009;491.2;-48.225;17.006;-60.225;5.0;-32.95861;-60.63367;49.6;43.2
20211011_175849.5;-0.212;-1.267;9.803;0.003;0.005;0.009;491.2;-47.831;18.581;-58.219;5.0;-32.95861;-60.63367;49.6;43.2
20211011_175850.0;-0.545;-1.128;10.014;-0.012;0.004;0.006;491.2;-48.469;15.431;-59.738;5.0;-32.95862;-60.63356;49.9;41.4
20211011_175850.5;-0.614;-0.942;9.267;-0.006;0.022;0.002;491.2;-50.794;16.725;-58.913;5.0;-32.95862;-60.63356;49.9;41.4
20211011_175851.0;-0.289;-1.291;10.033;0.014;-0.015;-0.005;444.4;-48.244;17.475;-59.756;5.0;-32.95864;-60.63344;49.6;40.3
20211011_175851.5;-0.102;-1.253;9.693;0.003;0.003;0.002;444.4;-48.788;16.856;-59.588;5.0;-32.95864;-60.63344;49.6;40.3
20211011_175852.0;-0.382;-1.250;9.475;-0.000;-0.008;0.004;444.4;-48.244;17.475;-60.225;5.0;-32.95867;-60.63331;49.0;39.3
20211011_175852.5;-0.798;-1.241;9.705;0.014;-0.023;0.001;444.4;-49.481;16.088;-61.125;5.0;-32.95867;-60.63331;49.0;39.3
20211011_175853.0;-0.145;-1.025;9.190;-0.012;0.027;0.002;444.4;-47.794;17.475;-58.200;5.0;-32.95869;-60.63320;49.1;37.9
20211011_175853.5;-0.777;-1.102;9.264;-0.010;-0.006;0.002;444.4;-50.194;16.088;-54.113;5.0;-32.95869;-60.63320;49.1;37.9
20211011_175854.0;-0.109;-2.020;9.604;-0.001;0.008;0.004;444.4;-47.531;17.794;-59.775;5.0;-32.95871;-60.63307;49.0;37.3
20211011_175855.0;-0.578;-2.146;10.215;-0.017;-0.007;0.013;444.4;-46.763;16.669;-58.238;5.0;-32.95871;-60.63307;49.0;37.3
20211011_175855.5;-0.492;-1.816;9.284;-0.007;0.007;0.007;395.2;-50.513;16.894;-59.850;5.0;-32.95872;-60.63298;47.6;32.8
20211011_175856.0;-0.305;-2.230;9.607;0.006;0.002;0.001;395.2;-49.800;16.875;-58.313;5.0;-32.95872;-60.63298;47.6;32.8
20211011_175856.5;-0.327;-2.607;9.609;0.010;-0.002;-0.011;395.2;-49.106;17.963;-58.800;5.0;-32.95873;-60.63289;48.7;28.7
20211011_175857.0;-0.281;-2.777;9.590;0.010;0.002;-0.002;395.2;-48.225;17.006;-59.756;5.0;-32.95873;-60.63289;48.7;28.7
20211011_175857.5;-0.396;-2.513;9.616;0.001;0.000;0.001;395.2;-49.688;17.813;-59.719;5.0;-32.95876;-60.63283;47.0;21.8
20211011_175858.0;-0.437;-2.108;9.616;0.001;0.006;-0.004;442.7;-47.794;17.475;-58.988;5.0;-32.95876;-60.63283;47.0;21.8
20211011_175858.5;-0.176;-2.336;9.384;-0.000;-0.006;-0.008;442.7;-48.225;17.006;-58.969;5.0;-32.95876;-60.63280;45.7;15.5
20211011_175859.0;-0.372;-2.846;9.583;0.005;0.014;0.003;442.7;-49.500;16.556;-58.781;5.0;-32.95876;-60.63280;45.7;15.5
20211011_175859.5;-0.456;-2.810;9.537;0.006;-0.010;0.005;442.7;-49.706;18.300;-60.488;5.0;-32.95875;-60.63275;45.7;9.7
20211011_175900.0;-0.478;-1.861;9.652;-0.005;-0.001;-0.001;492.2;-47.363;17.306;-59.625;5.0;-32.95875;-60.63275;45.7;9.7
20211011_175900.5;-0.466;-1.371;9.817;0.007;0.013;0.005;492.2;-49.388;17.494;-58.631;5.0;-32.95875;-60.63277;44.8;2.3
20211011_175901.0;-0.370;-1.013;9.552;0.003;0.003;0.002;492.2;-48.956;17.494;-58.950;5.0;-32.95875;-60.63277;44.8;2.3
20211011_175901.5;-0.308;-1.018;9.626;-0.000;-0.001;-0.001;492.2;-49.406;18.281;-59.719;5.0;-32.95875;-60.63276;44.9;0.0
20211011_175902.0;-0.399;-0.925;9.825;0.006;-0.003;0.000;492.2;-50.981;18.000;-61.088;5.0;-32.95875;-60.63276;44.9;0.0
20211011_175902.5;-0.262;-0.805;9.614;-0.002;-0.003;-0.001;492.2;-50.794;16.744;-60.150;5.0;-32.95874;-60.63275;44.6;1.2
20211011_175903.0;-0.329;-0.736;9.628;-0.001;-0.001;-0.001;492.2;-49.688;17.813;-59.400;5.0;-32.95874;-60.63275;44.6;1.2
20211011_175903.5;-0.363;-0.757;9.820;-0.001;-0.000;-0.001;492.2;-50.269;18.469;-59.869;5.0;-32.95875;-60.63276;44.0;1.0
20211011_175904.0;-0.339;-0.704;9.585;-0.000;0.001;0.001;492.2;-49.519;17.344;-59.869;5.0;-32.95875;-60.63276;44.0;1.0
20211011_175904.5;-0.322;-0.724;9.590;-0.001;0.001;0.001;492.2;-48.150;19.219;-61.463;5.0;-32.95876;-60.63276;44.9;1.2
20211011_175905.0;-0.394;-0.772;9.894;0.001;0.002;0.001;492.2;-49.388;17.494;-59.719;5.0;-32.95876;-60.63276;44.9;1.2
20211011_175905.5;-0.391;-0.714;9.707;-0.001;-0.002;-0.001;492.2;-49.725;19.088;-60.188;5.0;-32.95876;-60.63277;44.1;1.4
20211011_175906.0;-0.351;-0.800;9.808;0.001;0.002;0.001;492.2;-48.394;17.963;-59.906;5.0;-32.95876;-60.63277;44.1;1.4
20211011_175906.5;-0.308;-0.738;9.604;0.000;-0.001;-0.002;492.2;-48.788;16.856;-59.119;5.0;-32.95875;-60.63276;44.8;0.9
20211011_175907.0;-0.312;-0.779;9.765;0.001;-0.002;-0.002;492.2;-49.106;17.663;-61.125;5.0;-32.95875;-60.63276;44.8;0.9
20211011_175907.5;-0.363;-0.693;9.731;0.000;-0.001;-0.000;492.2;-49.069;16.556;-59.888;5.0;-32.95875;-60.63276;43.8;1.2
20211011_175908.0;-0.341;-0.764;9.872;-0.001;0.002;0.001;492.2;-48.956;17.494;-59.419;5.0;-32.95875;-60.63276;43.8;1.2
20211011_175908.5;-0.351;-0.707;9.679;-0.001;0.000;-0.002;442.2;-49.519;17.663;-58.013;5.0;-32.95875;-60.63276;45.9;0.0
20211011_175909.0;-0.329;-0.795;9.686;0.001;0.003;0.001;442.2;-48.938;17.025;-60.206;5.0;-32.95875;-60.63276;45.9;0.0
20211011_175909.5;-0.375;-0.750;9.640;0.001;-0.000;0.001;442.2;-49.050;16.069;-58.013;5.0;-32.95875;-60.63276;45.0;0.0
20211011_175910.0;-0.358;-0.762;9.712;-0.001;-0.000;-0.001;442.2;-48.113;17.944;-58.819;5.0;-32.95875;-60.63276;45.0;0.0
20211011_175910.5;-0.408;-0.750;9.688;0.001;-0.000;-0.001;442.2;-50.513;16.894;-60.319;5.0;-32.95875;-60.63276;44.5;0.0
20211011_175911.0;-0.360;-0.745;9.805;-0.001;-0.001;-0.000;493.2;-49.350;16.238;-60.188;5.0;-32.95875;-60.63276;44.5;0.0
20211011_175911.5;-0.370;-0.776;9.882;0.001;0.001;0.002;493.2;-48.975;17.813;-61.294;5.0;-32.95875;-60.63276;44.5;0.0
20211011_175912.0;-0.315;-0.793;9.750;0.001;0.000;-0.000;493.2;-49.650;17.025;-59.719;5.0;-32.95875;-60.63276;44.5;0.0
20211011_175912.5;-0.353;-0.760;9.748;0.000;-0.003;-0.001;493.2;-49.406;17.813;-61.275;5.0;-32.95875;-60.63276;44.4;0.0
20211011_175913.0;-0.324;-0.554;9.616;-0.001;-0.001;-0.002;493.2;-50.081;17.044;-59.700;5.0;-32.95875;-60.63276;44.4;0.0
20211011_175913.5;-0.274;-0.803;9.813;-0.001;-0.003;-0.001;493.2;-50.550;18.000;-60.638;5.0;-32.95875;-60.63277;43.3;0.0
20211011_175914.0;-0.329;-0.815;9.707;0.001;-0.004;-0.002;493.2;-49.650;16.706;-59.719;5.0;-32.95875;-60.63277;43.3;0.0
20211011_175914.5;-0.317;-0.132;10.076;0.019;-0.002;0.002;493.2;-47.306;15.244;-57.600;5.0;-32.95875;-60.63277;42.9;0.0
20211011_175915.0;-0.396;0.692;10.004;0.006;0.002;0.002;493.2;-50.531;17.363;-58.294;5.0;-32.95875;-60.63277;42.9;0.0
20211011_175915.5;-0.219;1.559;9.899;0.003;-0.002;0.004;493.2;-49.669;17.513;-59.400;5.0;-32.95875;-60.63276;43.5;2.1
20211011_175916.0;-0.394;0.414;9.710;-0.015;-0.027;0.007;493.2;-49.350;16.238;-58.950;5.0;-32.95875;-60.63276;43.5;2.1
20211011_175916.5;-0.461;0.919;9.846;0.006;-0.022;0.002;493.2;-48.525;17.794;-60.206;5.0;-32.95875;-60.63275;44.0;8.3
20211011_175917.0;-0.293;0.141;9.753;-0.009;0.018;0.002;441.9;-49.425;19.088;-59.419;5.0;-32.95875;-60.63275;44.0;8.3
20211011_175917.5;-0.198;-0.942;9.820;-0.005;0.009;0.001;441.9;-49.069;16.556;-60.656;5.0;-32.95876;-60.63271;43.4;14.3
20211011_175918.0;-0.444;0.397;9.779;0.027;0.012;-0.004;399.1;-50.250;17.681;-61.406;5.0;-32.95876;-60.63271;43.4;14.3
20211011_175918.5;-0.286;0.304;10.035;0.018;0.035;0.005;399.1;-50.363;16.725;-59.381;5.0;-32.95877;-60.63269;43.9;13.7
20211011_175919.0;-0.169;0.110;10.011;0.010;0.055;0.011;447.0;-47.663;17.625;-59.925;5.0;-32.95877;-60.63269;43.9;13.7
20211011_175919.5;-0.679;0.663;9.413;-0.002;0.012;-0.003;447.0;-48.994;18.600;-61.594;5.0;-32.95877;-60.63265;43.5;16.5
20211011_175920.0;-0.181;0.462;9.884;0.045;0.033;-0.014;447.0;-48.525;17.475;-57.413;5.0;-32.95877;-60.63265;43.5;16.5
20211011_175920.5;0.157;-0.000;10.064;-0.019;0.014;-0.011;447.0;-48.488;16.219;-60.525;5.0;-32.95878;-60.63260;43.4;20.0
20211011_175921.0;-0.253;0.407;9.750;0.009;-0.001;-0.012;447.0;-47.494;16.988;-56.344;5.0;-32.95878;-60.63260;43.4;20.0
20211011_175921.5;-0.236;-1.040;9.906;-0.031;0.011;-0.005;447.0;-49.669;17.513;-60.188;5.0;-32.95878;-60.63252;43.3;24.6
20211011_175922.0;-0.425;-0.779;9.700;-0.005;-0.001;0.009;501.5;-48.094;17.644;-58.350;5.0;-32.95878;-60.63252;43.3;24.6
20211011_175922.5;-0.621;0.235;10.170;-0.036;0.008;0.012;559.8;-48.506;16.688;-59.438;5.0;-32.95880;-60.63245;43.3;26.3
20211011_175923.0;-0.458;-0.093;9.181;-0.048;-0.017;0.004;559.8;-48.956;17.494;-60.506;5.0;-32.95880;-60.63245;43.3;26.3
20211011_175923.5;0.099;-0.192;9.748;0.019;0.023;0.010;559.8;-50.063;16.256;-59.700;5.0;-32.95882;-60.63237;43.2;28.3
20211011_175924.0;-0.104;0.072;9.523;0.013;0.024;-0.001;624.8;-50.175;15.300;-58.313;5.0;-32.95882;-60.63237;43.2;28.3
20211011_175924.5;-0.375;-0.228;9.516;0.001;-0.017;-0.005;624.8;-50.100;17.513;-60.169;5.0;-32.95883;-60.63229;43.3;30.8
20211011_175925.0;-0.102;-0.206;10.189;0.006;0.019;0.020;508.4;-47.681;18.413;-58.838;5.0;-32.95883;-60.63229;43.3;30.8
20211011_175925.5;-0.727;-0.067;10.192;-0.004;0.033;0.016;508.4;-48.750;15.750;-59.588;5.0;-32.95885;-60.63220;43.3;32.9
20211011_175926.0;0.318;-0.623;9.825;-0.003;0.010;0.019;508.4;-49.125;18.750;-59.119;5.0;-32.95885;-60.63220;43.3;32.9
20211011_175926.5;0.212;-0.846;10.069;-0.006;0.007;0.001;508.4;-47.381;17.944;-60.394;5.0;-32.95887;-60.63210;43.3;35.0
20211011_175927.0;-0.142;-0.848;9.377;0.001;-0.021;0.006;508.4;-47.381;17.625;-61.163;5.0;-32.95888;-60.63200;43.3;35.2
20211011_175927.5;-0.181;-0.997;9.767;-0.018;0.016;-0.001;567.4;-46.613;16.031;-59.175;5.0;-32.95888;-60.63200;43.3;35.2
20211011_175928.0;-0.353;-0.259;9.815;0.004;0.006;0.005;567.4;-47.663;17.625;-61.163;5.0;-32.95889;-60.63190;43.7;34.8
20211011_175928.5;-0.217;0.328;10.052;0.012;0.005;-0.007;567.4;-47.681;18.413;-59.138;5.0;-32.95889;-60.63190;43.7;34.8
20211011_175929.0;0.030;-0.369;9.753;0.013;-0.003;-0.001;567.4;-47.700;18.413;-60.394;5.0;-32.95892;-60.63181;44.8;37.1
20211011_175929.5;-0.499;-0.906;9.798;0.002;0.019;-0.005;643.5;-46.350;16.650;-59.475;5.0;-32.95892;-60.63181;44.8;37.1
20211011_175930.0;-0.334;-0.247;9.731;0.024;-0.034;-0.014;643.5;-47.044;15.881;-61.331;5.0;-32.95893;-60.63170;45.4;37.8
20211011_175930.5;-0.751;-0.257;9.011;-0.017;-0.053;-0.004;643.5;-49.069;16.556;-61.913;5.0;-32.95893;-60.63170;45.4;37.8
20211011_175931.0;-0.549;-0.333;8.902;-0.005;-0.045;-0.008;643.5;-48.113;17.963;-60.694;5.0;-32.95895;-60.63158;44.9;39.9
20211011_175931.5;-0.760;-0.745;10.613;-0.001;-0.010;0.010;579.9;-48.169;15.431;-60.206;5.0;-32.95895;-60.63158;44.9;39.9
20211011_175932.0;-0.363;-0.791;10.062;-0.018;0.005;-0.000;579.9;-49.500;16.556;-59.869;5.0;-32.95897;-60.63145;44.4;40.9
20211011_175932.5;-0.411;-0.958;8.814;0.011;0.036;-0.000;526.8;-47.363;17.306;-59.925;5.0;-32.95897;-60.63145;44.4;40.9
20211011_175933.0;-0.351;-1.164;9.748;-0.006;-0.035;-0.004;526.8;-48.075;16.838;-59.606;5.0;-32.95900;-60.63133;45.2;40.5
20211011_175933.5;-0.549;-0.946;9.449;-0.030;-0.027;-0.004;526.8;-46.913;16.519;-59.944;5.0;-32.95900;-60.63133;45.2;40.5
20211011_175934.0;-0.219;-1.191;8.895;-0.002;-0.015;-0.031;526.8;-48.488;16.688;-58.650;5.0;-32.95901;-60.63123;46.3;38.7
20211011_175934.5;-0.142;-1.440;10.115;0.032;0.009;0.021;586.7;-50.250;17.363;-59.550;5.0;-32.95901;-60.63123;46.3;38.7
20211011_175935.0;-0.272;-0.920;10.225;0.045;-0.024;0.001;654.5;-49.069;16.556;-61.125;5.0;-32.95902;-60.63110;46.4;38.4
20211011_175936.0;-0.674;-0.117;8.378;-0.048;0.067;-0.006;727.4;-49.369;16.706;-60.188;5.0;-32.95902;-60.63110;46.4;38.4
20211011_175936.5;0.567;-0.408;9.415;-0.025;0.036;-0.024;810.7;-48.356;16.856;-60.375;5.0;-32.95905;-60.63099;46.5;39.1
20211011_175937.0;-0.593;-0.206;9.892;-0.032;-0.027;-0.020;810.7;-48.506;17.006;-61.294;5.0;-32.95905;-60.63099;46.5;39.1
20211011_175937.5;-0.042;-0.314;9.817;-0.001;-0.021;-0.012;665.2;-48.075;16.838;-59.906;5.0;-32.95908;-60.63087;46.3;41.0
20211011_175938.0;-0.554;-0.410;9.865;0.006;-0.011;0.005;597.5;-47.456;15.094;-61.313;5.0;-32.95908;-60.63087;46.3;41.0
20211011_175938.5;-0.205;-0.523;10.083;-0.013;0.028;0.019;535.2;-48.113;17.963;-60.694;5.0;-32.95911;-60.63076;46.0;42.4
20211011_175939.0;-0.346;-0.475;9.705;0.007;0.031;0.001;535.2;-47.494;16.688;-61.013;5.0;-32.95911;-60.63076;46.0;42.4
20211011_175939.5;-0.190;-0.623;9.851;-0.013;-0.036;-0.004;481.2;-49.388;17.494;-60.188;5.0;-32.95912;-60.63064;45.7;43.4
20211011_175940.0;-0.214;-0.355;9.851;-0.015;-0.019;-0.011;481.2;-50.250;17.681;-61.875;5.0;-32.95912;-60.63064;45.7;43.4
20211011_175940.5;-0.061;-0.455;9.580;-0.027;0.015;0.002;436.4;-49.819;17.663;-59.869;5.0;-32.95914;-60.63052;46.4;44.1
20211011_175941.0;-0.418;-0.939;10.057;-0.007;-0.021;-0.003;436.4;-48.188;15.900;-59.438;5.0;-32.95914;-60.63052;46.4;44.1
20211011_175941.5;-0.310;-0.965;9.533;-0.008;0.013;0.011;396.3;-48.750;15.281;-60.356;5.0;-32.95917;-60.63038;46.2;44.0
20211011_175942.0;-0.293;-1.011;9.602;-0.003;0.004;-0.000;396.3;-48.788;16.538;-60.675;5.0;-32.95917;-60.63038;46.2;44.0
20211011_175942.5;0.154;-0.566;9.516;-0.004;-0.007;0.007;396.3;-48.844;18.431;-60.675;5.0;-32.95919;-60.63026;46.4;43.1
20211011_175943.0;-0.413;-0.695;9.724;-0.021;-0.020;0.006;442.0;-49.050;15.750;-59.888;5.0;-32.95919;-60.63026;46.4;43.1
20211011_175943.5;-0.554;-0.812;9.176;-0.013;-0.014;0.012;442.0;-49.069;16.556;-59.888;5.0;-32.95920;-60.63014;46.5;42.7
20211011_175944.0;-0.329;-0.946;9.825;0.002;-0.013;-0.006;442.0;-47.363;16.838;-63.038;5.0;-32.95920;-60.63014;46.5;42.7
20211011_175944.5;-0.090;-1.766;9.621;0.007;-0.055;-0.012;442.0;-48.188;15.900;-59.438;5.0;-32.95922;-60.63002;46.6;42.3
20211011_175945.0;-0.435;-0.956;9.178;-0.006;0.012;-0.007;442.0;-49.819;17.344;-61.425;5.0;-32.95922;-60.63002;46.6;42.3
20211011_175945.5;-0.233;-1.021;9.542;-0.009;0.004;-0.014;442.0;-49.669;17.513;-60.488;5.0;-32.95925;-60.62989;46.2;40.7
20211011_175946.0;-0.130;-0.951;9.293;-0.010;-0.009;0.002;491.7;-48.469;15.900;-58.650;5.0;-32.95925;-60.62989;46.2;40.7
20211011_175946.5;-0.087;-0.333;8.979;-0.061;-0.008;-0.010;554.1;-51.544;17.850;-58.594;5.0;-32.95929;-60.62976;45.9;41.0
20211011_175947.0;0.205;-0.489;8.962;-0.013;0.026;-0.005;554.1;-49.950;21.938;-58.013;5.0;-32.95929;-60.62976;45.9;41.0
20211011_175947.5;0.166;-0.475;9.923;0.045;-0.006;-0.008;618.3;-46.181;16.500;-57.619;5.0;-32.95932;-60.62963;47.3;41.3
20211011_175948.0;-0.822;-0.697;10.484;0.041;-0.014;0.015;618.3;-47.081;17.456;-60.244;5.0;-32.95932;-60.62963;47.3;41.3
20211011_175948.5;-0.430;-0.146;10.735;0.092;-0.013;-0.003;561.9;-48.244;17.475;-60.225;5.0;-32.95936;-60.62950;49.2;42.6
20211011_175949.0;-0.348;-0.582;9.360;0.013;-0.003;0.006;448.0;-49.106;17.663;-61.125;5.0;-32.95936;-60.62950;49.2;42.6
20211011_175949.5;-0.509;-0.693;9.923;0.010;0.011;0.011;448.0;-47.381;17.625;-59.925;5.0;-32.95938;-60.62937;49.4;44.1
20211011_175950.0;-0.291;-0.939;9.592;-0.011;-0.008;0.002;498.3;-48.506;17.006;-58.969;5.0;-32.95938;-60.62937;49.4;44.1
20211011_175950.5;-0.320;-0.855;9.880;-0.009;-0.014;0.008;498.3;-47.644;16.838;-59.925;5.0;-32.95941;-60.62924;49.2;43.6
20211011_175951.0;-0.286;-0.716;9.652;0.010;-0.006;0.004;498.3;-47.663;17.306;-59.138;5.0;-32.95941;-60.62924;49.2;43.6
20211011_175951.5;0.193;-0.841;9.908;-0.001;0.009;-0.013;556.7;-46.313;15.394;-59.794;5.0;-32.95943;-60.62911;49.1;43.3
20211011_175952.0;-0.633;-0.898;9.973;0.009;-0.034;-0.005;556.7;-48.506;16.688;-59.438;5.0;-32.95943;-60.62911;49.1;43.3
20211011_175952.5;-0.207;-0.661;10.086;0.004;-0.015;-0.003;556.7;-49.500;16.556;-59.569;5.0;-32.95946;-60.62898;49.5;43.2
20211011_175953.0;-0.028;-0.918;9.303;-0.031;0.007;-0.010;492.3;-48.938;17.025;-60.506;5.0;-32.95946;-60.62898;49.5;43.2
20211011_175953.5;-0.368;-0.736;9.485;-0.019;0.008;-0.009;492.3;-47.663;17.625;-59.138;5.0;-32.95948;-60.62887;47.3;43.2
20211011_175954.0;0.001;-0.815;10.158;-0.016;0.052;0.011;492.3;-51.881;15.338;-55.163;5.0;-32.95948;-60.62887;47.3;43.2
20211011_175954.5;-0.619;-0.827;9.528;-0.020;-0.048;-0.007;492.3;-48.000;14.475;-59.906;5.0;-32.95951;-60.62874;48.2;42.3
20211011_175955.0;-0.061;-1.006;9.698;0.009;-0.017;-0.001;444.0;-45.450;15.694;-60.431;5.0;-32.95951;-60.62874;48.2;42.3
20211011_175955.5;-0.274;-1.054;10.093;-0.010;-0.015;0.004;444.0;-49.331;15.919;-59.719;5.0;-32.95953;-60.62863;48.2;41.7
20211011_175956.0;0.579;-1.696;9.813;-0.019;0.038;0.026;444.0;-48.244;17.475;-59.756;5.0;-32.95953;-60.62863;48.2;41.7
20211011_175956.5;0.135;-1.241;8.941;0.001;-0.003;-0.003;444.0;-48.094;17.325;-60.375;5.0;-32.95955;-60.62850;48.0;40.8
20211011_175957.0;-0.485;-1.320;9.987;0.014;-0.014;-0.010;498.6;-48.338;16.538;-58.031;5.0;-32.95955;-60.62850;48.0;40.8
20211011_175957.5;-0.133;-1.243;9.236;-0.042;-0.006;0.003;498.6;-48.975;18.281;-58.650;5.0;-32.95958;-60.62838;47.9;39.5
20211011_175958.0;-0.075;-0.776;9.207;-0.026;-0.025;-0.012;498.6;-48.019;14.944;-59.588;5.0;-32.95958;-60.62838;47.9;39.5
20211011_175958.5;0.114;-0.506;10.016;-0.052;0.001;0.010;498.6;-48.019;15.263;-59.906;5.0;-32.95961;-60.62827;47.4;38.3
20211011_175959.0;0.001;-0.848;8.524;0.025;0.056;0.012;560.5;-47.081;17.456;-60.244;5.0;-32.95961;-60.62827;47.4;38.3
20211011_175959.5;-0.406;-1.102;9.480;0.003;-0.003;0.003;560.5;-48.169;15.113;-59.438;5.0;-32.95963;-60.62816;47.2;37.9
20211011_180000.0;-0.377;-1.281;9.540;-0.020;-0.005;0.001;560.5;-47.044;16.200;-58.219;5.0;-32.95963;-60.62816;47.2;37.9
20211011_180000.5;-0.181;-2.180;9.932;0.011;0.027;0.009;560.5;-48.769;16.069;-58.800;5.0;-32.95963;-60.62804;44.3;38.0
20211011_180001.0;-0.449;-2.336;9.600;-0.008;0.014;0.004;560.5;-46.331;15.863;-61.650;5.0;-32.95963;-60.62804;44.3;38.0
20211011_180001.5;0.040;-2.326;9.207;-0.009;0.002;-0.001;560.5;-47.813;17.475;-60.225;5.0;-32.95966;-60.62793;45.1;35.1
20211011_180002.0;-0.078;-3.026;9.463;-0.018;0.034;0.002;560.5;-48.488;16.219;-58.650;5.0;-32.95966;-60.62793;45.1;35.1
20211011_180002.5;-0.372;-2.913;9.288;-0.021;0.006;-0.003;560.5;-48.056;16.538;-60.375;5.0;-32.95970;-60.62783;45.6;29.5
20211011_180003.0;-0.063;-2.374;10.287;0.013;0.014;0.006;508.6;-46.631;16.500;-61.500;5.0;-32.95970;-60.62783;45.6;29.5
20211011_180003.5;-0.221;-1.735;9.655;0.005;0.004;-0.000;457.2;-47.531;17.794;-61.313;5.0;-32.95971;-60.62775;45.0;22.5
20211011_180004.0;-0.300;-1.133;9.463;-0.005;-0.023;-0.003;457.2;-48.056;16.538;-58.819;5.0;-32.95971;-60.62775;45.0;22.5
20211011_180004.5;-0.286;-0.599;9.521;-0.009;-0.005;-0.004;457.2;-47.775;16.688;-59.756;5.0;-32.95972;-60.62770;43.3;18.0
20211011_180005.0;-0.650;-2.458;9.513;-0.019;-0.000;-0.006;457.2;-48.075;16.838;-59.906;5.0;-32.95972;-60.62770;43.3;18.0
20211011_180005.5;-0.442;-2.633;9.609;0.004;0.011;-0.004;457.2;-47.625;16.519;-59.925;5.0;-32.95973;-60.62765;43.8;17.2
20211011_180006.0;-0.262;-2.647;9.803;0.001;-0.013;-0.003;457.2;-49.650;16.706;-59.719;5.0;-32.95972;-60.62764;42.4;10.0
20211011_180006.5;-0.384;-1.634;9.535;0.010;0.006;0.002;457.2;-48.375;17.325;-60.375;5.0;-32.95972;-60.62764;42.4;10.0
20211011_180007.0;-0.272;-1.474;9.576;-0.002;-0.001;0.003;512.6;-49.331;15.919;-58.631;5.0;-32.95973;-60.62761;42.7;5.3
20211011_180007.5;-0.233;-1.330;9.868;-0.002;-0.006;0.003;512.6;-49.388;17.494;-58.631;5.0;-32.95973;-60.62761;42.7;5.3
20211011_180008.0;-0.233;-1.361;9.746;0.001;-0.002;-0.002;512.6;-47.813;17.794;-59.756;5.0;-32.95973;-60.62761;42.1;2.9
20211011_180008.5;-0.209;-1.459;9.544;0.002;0.001;-0.000;512.6;-48.956;17.494;-60.206;5.0;-32.95973;-60.62761;42.1;2.9
20211011_180009.0;-0.202;-1.049;9.844;-0.001;-0.002;-0.002;572.5;-46.369;17.756;-59.494;5.0;-32.95972;-60.62761;39.9;0.6
20211011_180009.5;-0.154;-0.673;9.571;0.003;-0.000;-0.001;572.5;-49.519;17.344;-59.869;5.0;-32.95972;-60.62761;39.9;0.6
20211011_180010.0;-0.255;0.402;9.760;0.011;-0.003;-0.001;572.5;-47.644;16.838;-60.394;5.0;-32.95972;-60.62761;42.8;0.0
20211011_180010.5;-0.066;1.298;10.211;0.005;-0.006;-0.001;572.5;-48.525;17.494;-58.969;5.0;-32.95972;-60.62761;42.8;0.0
20211011_180011.0;-0.269;1.068;9.573;0.006;-0.014;0.006;572.5;-48.825;17.963;-58.031;5.0;-32.95973;-60.62761;42.5;5.1
20211011_180011.5;-0.356;0.965;9.846;-0.017;0.014;0.002;572.5;-49.819;17.981;-58.781;5.0;-32.95973;-60.62761;42.5;5.1
20211011_180012.0;-0.226;0.702;9.691;-0.004;-0.008;0.007;572.5;-48.225;17.006;-60.225;5.0;-32.95973;-60.62758;44.2;10.7
20211011_180012.5;-0.303;-0.721;9.669;0.006;0.001;0.014;572.5;-48.900;15.431;-60.975;5.0;-32.95973;-60.62758;44.2;10.7
20211011_180013.0;-0.166;1.205;10.235;0.040;0.002;0.001;520.2;-49.800;16.875;-61.106;5.0;-32.95973;-60.62755;42.5;13.1
20211011_180014.0;-0.241;0.749;10.035;0.031;0.021;0.008;520.2;-48.338;16.069;-60.375;5.0;-32.95973;-60.62755;42.5;13.1
20211011_180014.5;0.123;0.524;10.362;0.012;0.022;-0.024;520.2;-49.425;14.494;-55.688;5.0;-32.95974;-60.62750;43.5;18.0
20211011_180015.0;-0.020;0.622;9.980;-0.007;0.010;-0.031;520.2;-48.113;18.431;-58.350;5.0;-32.95974;-60.62750;43.5;18.0
20211011_180015.5;-0.332;0.558;10.163;-0.007;-0.003;-0.019;520.2;-47.663;17.306;-59.606;5.0;-32.95975;-60.62743;42.5;21.6
20211011_180016.0;0.032;0.457;9.556;-0.011;0.012;-0.005;520.2;-49.650;16.725;-60.488;5.0;-32.95975;-60.62743;42.5;21.6
20211011_180016.5;-0.025;0.393;9.954;0.020;0.019;-0.004;520.2;-48.469;15.900;-60.206;5.0;-32.95976;-60.62738;40.1;25.8
20211011_180017.0;-0.025;-0.910;9.123;-0.051;-0.035;-0.001;520.2;-47.344;16.519;-59.925;5.0;-32.95976;-60.62738;40.1;25.8
20211011_180017.5;0.257;-1.035;10.749;0.034;0.033;0.015;520.2;-47.663;17.625;-60.394;5.0;-32.95977;-60.62728;39.0;28.4
20211011_180018.0;-0.205;-0.172;9.987;0.019;-0.008;0.002;520.2;-47.456;15.413;-57.431;5.0;-32.95977;-60.62728;39.0;28.4
20211011_180018.5;-0.358;-0.580;9.770;-0.010;-0.002;0.012;520.2;-46.744;15.881;-59.775;5.0;-32.95980;-60.62719;36.6;28.6
20211011_180019.0;-0.102;-0.676;9.777;-0.003;0.018;0.001;520.2;-46.838;19.031;-57.150;5.0;-32.95980;-60.62719;36.6;28.6
20211011_180019.5;0.226;-0.259;9.983;0.037;0.065;0.035;520.2;-46.669;13.181;-57.919;5.0;-32.95981;-60.62710;36.7;29.3
20211011_180020.0;-0.047;-0.494;11.315;-0.017;-0.039;-0.026;583.8;-46.875;20.138;-57.450;5.0;-32.95981;-60.62710;36.7;29.3
20211011_180020.5;0.231;-0.669;8.660;-0.045;0.075;-0.019;583.8;-45.881;15.713;-59.963;5.0;-32.95983;-60.62701;35.4;30.2
20211011_180021.0;0.023;-0.024;10.457;-0.050;-0.010;-0.026;583.8;-49.800;16.875;-58.781;5.0;-32.95983;-60.62701;35.4;30.2
20211011_180021.5;-0.830;-0.079;9.583;-0.054;0.011;-0.001;583.8;-46.631;16.819;-59.625;5.0;-32.95985;-60.62692;35.8;32.0
20211011_180022.0;-0.775;-0.286;9.944;-0.045;0.017;0.019;583.8;-47.438;15.094;-58.988;5.0;-32.95985;-60.62692;35.8;32.0
20211011_180022.5;-0.025;-0.262;9.434;-0.033;0.034;0.009;583.8;-49.481;16.088;-59.569;5.0;-32.95987;-60.62683;35.2;34.0
20211011_180023.0;-1.010;-0.491;11.329;0.010;-0.055;-0.025;522.6;-48.506;16.688;-60.994;5.0;-32.95987;-60.62683;35.2;34.0
20211011_180023.5;0.289;-0.558;9.896;-0.020;-0.066;-0.005;522.6;-48.206;16.688;-59.756;5.0;-32.95989;-60.62672;32.4;37.0
20211011_180024.0;2.033;-0.791;11.106;-0.022;-0.006;0.043;587.6;-47.494;16.688;-59.775;5.0;-32.95989;-60.62672;32.4;37.0
20211011_180024.5;-0.916;-0.412;9.044;0.004;-0.038;-0.019;587.6;-47.325;16.050;-59.156;5.0;-32.95993;-60.62659;30.1;40.6
20211011_180025.0;-1.572;0.942;7.899;-0.063;-0.043;-0.008;587.6;-47.306;15.263;-59.925;5.0;-32.95993;-60.62659;30.1;40.6
20211011_180025.5;-0.830;-1.344;11.542;0.095;0.006;0.017;587.6;-48.506;17.006;-59.738;5.0;-32.95996;-60.62646;28.7;43.0
20211011_180026.0;-1.177;-0.764;9.097;0.021;-0.040;0.007;587.6;-48.300;14.963;-60.675;5.0;-32.95996;-60.62646;28.7;43.0
20211011_180026.5;-0.499;-0.420;11.003;-0.014;-0.080;-0.003;587.6;-47.363;17.306;-58.369;5.0;-32.95999;-60.62635;28.4;43.0
20211011_180027.0;0.126;-1.780;10.654;-0.029;-0.039;0.012;587.6;-47.663;17.306;-60.694;5.0;-32.95999;-60.62635;28.4;43.0
20211011_180027.5;-0.825;-2.158;9.046;0.056;0.154;0.021;531.2;-47.344;16.519;-58.069;5.0;-32.96001;-60.62623;25.6;41.7
20211011_180028.0;-0.845;-1.303;10.955;0.040;0.007;0.006;531.2;-46.894;16.031;-59.944;5.0;-32.96001;-60.62623;25.6;41.7
20211011_180028.5;1.623;-1.670;9.130;-0.014;-0.064;-0.043;531.2;-49.050;16.069;-60.656;5.0;-32.96004;-60.62611;29.3;39.5
20211011_180029.0;0.402;-1.696;7.415;0.057;-0.013;-0.017;531.2;-46.650;17.288;-59.625;5.0;-32.96004;-60.62611;29.3;39.5
20211011_180029.5;1.067;-1.133;8.919;-0.040;-0.014;0.003;531.2;-48.769;16.069;-60.675;5.0;-32.96006;-60.62599;30.0;38.4
20211011_180030.0;1.173;-0.853;9.384;-0.060;-0.017;-0.002;531.2;-47.044;16.200;-59.775;5.0;-32.96006;-60.62599;30.0;38.4
20211011_180030.5;-1.168;-0.444;9.269;-0.027;0.012;-0.010;531.2;-48.113;18.431;-59.138;5.0;-32.96007;-60.62588;28.3;37.9
20211011_180031.0;-1.738;-0.836;9.020;-0.007;0.030;-0.002;531.2;-49.031;14.963;-59.888;5.0;-32.96007;-60.62588;28.3;37.9
20211011_180031.5;0.447;-1.056;10.338;0.020;0.071;0.028;531.2;-48.056;16.050;-59.906;5.0;-32.96009;-60.62576;30.1;38.7
20211011_180032.0;0.040;-1.644;11.183;0.070;0.017;0.033;531.2;-47.775;16.200;-59.456;5.0;-32.96009;-60.62576;30.1;38.7
20211011_180032.5;-0.339;-1.076;8.883;0.059;-0.033;-0.035;531.2;-48.206;16.688;-58.969;5.0;-32.96012;-60.62565;30.8;39.0
20211011_180033.0;0.190;-1.387;10.431;-0.008;-0.099;-0.039;531.2;-48.356;16.856;-59.906;5.0;-32.96012;-60.62565;30.8;39.0
20211011_180033.5;0.629;-0.922;8.105;0.028;-0.013;-0.050;531.2;-47.325;16.050;-59.925;5.0;-32.96014;-60.62554;31.4;39.5
20211011_180034.0;0.054;-0.403;9.391;0.001;0.026;0.038;531.2;-43.688;14.400;-56.588;5.0;-32.96014;-60.62554;31.4;39.5
20211011_180034.5;0.409;0.611;8.146;-0.029;0.121;0.079;531.2;-45.619;16.650;-56.400;5.0;-32.96017;-60.62542;31.3;40.3
20211011_180035.0;1.144;-1.397;9.695;0.001;-0.034;-0.004;531.2;-46.706;14.288;-59.006;5.0;-32.96017;-60.62542;31.3;40.3
20211011_180035.5;-0.950;-1.179;10.450;-0.017;0.052;0.015;531.2;-47.625;16.519;-58.838;5.0;-32.96021;-60.62531;29.7;41.9
20211011_180036.0;-0.719;-1.102;9.817;0.024;-0.084;-0.009;531.2;-47.681;17.944;-60.394;5.0;-32.96021;-60.62531;29.7;41.9
20211011_180036.5;1.058;-1.524;9.260;0.082;-0.030;-0.026;531.2;-46.763;16.200;-58.688;5.0;-32.96023;-60.62518;28.3;43.4
20211011_180037.0;0.248;-1.066;8.208;0.014;-0.005;0.012;590.3;-46.950;17.925;-59.625;5.0;-32.96023;-60.62518;28.3;43.4
20211011_180037.5;0.114;-1.344;12.587;0.042;-0.032;-0.003;590.3;-47.513;16.988;-60.225;5.0;-32.96025;-60.62505;27.7;43.6
20211011_180038.0;-0.296;-1.522;11.034;-0.062;0.064;0.010;590.3;-47.663;17.306;-59.606;5.0;-32.96025;-60.62505;27.7;43.6
20211011_180038.5;0.414;-0.139;7.563;0.001;0.010;-0.000;590.3;-46.313;15.394;-59.794;5.0;-32.96027;-60.62493;28.1;42.5
20211011_180039.0;-0.413;-1.797;9.513;0.004;-0.001;-0.065;532.0;-47.513;16.988;-60.225;5.0;-32.96027;-60.62493;28.1;42.5
20211011_180039.5;-0.492;-0.738;10.563;0.047;0.032;0.004;532.0;-49.388;17.494;-61.594;5.0;-32.96029;-60.62481;25.5;42.8
20211011_180040.0;-1.853;-0.439;8.842;-0.105;0.048;0.040;532.0;-44.231;18.206;-57.206;5.0;-32.96029;-60.62481;25.5;42.8
20211011_180040.5;0.102;-1.435;8.325;-0.020;-0.039;-0.002;532.0;-47.288;14.944;-59.156;5.0;-32.96031;-60.62468;26.2;42.9
20211011_180041.0;0.476;-1.981;10.701;-0.051;0.018;-0.021;532.0;-46.781;16.988;-58.238;5.0;-32.96031;-60.62468;26.2;42.9
20211011_180041.5;-0.724;-0.444;8.780;-0.040;-0.026;0.025;532.0;-46.800;17.775;-57.919;5.0;-32.96033;-60.62454;27.2;43.2
20211011_180042.0;0.658;-0.865;8.234;-0.069;-0.098;-0.047;532.0;-47.775;16.688;-59.756;5.0;-32.96033;-60.62454;27.2;43.2
20211011_180042.5;0.171;-0.525;8.854;0.010;-0.035;-0.013;532.0;-46.950;17.925;-58.388;5.0;-32.96035;-60.62442;27.0;43.5
20211011_180043.0;-0.356;-0.807;8.845;0.015;-0.014;-0.009;532.0;-46.275;14.288;-59.794;5.0;-32.96037;-60.62430;25.5;43.6
20211011_180043.5;-1.328;-1.608;10.175;-0.039;-0.015;-0.048;532.0;-48.356;16.856;-59.119;5.0;-32.96037;-60.62430;25.5;43.6
20211011_180044.0;-1.790;-0.712;9.997;0.013;0.016;0.022;532.0;-47.044;16.200;-59.006;5.0;-32.96040;-60.62415;23.8;45.1
20211011_180044.5;0.682;-1.231;11.471;0.002;0.032;0.011;532.0;-46.631;16.500;-59.625;5.0;-32.96040;-60.62415;23.8;45.1
20211011_180045.0;0.214;-0.606;10.668;-0.002;-0.064;-0.043;532.0;-49.331;15.450;-59.719;5.0;-32.96042;-60.62401;24.4;46.5
20211011_180045.5;-0.219;-0.283;10.311;-0.007;-0.042;-0.021;532.0;-46.875;15.244;-58.856;5.0;-32.96042;-60.62401;24.4;46.5
20211011_180046.0;0.897;0.254;9.264;0.039;0.060;-0.025;532.0;-47.381;17.944;-59.156;5.0;-32.96043;-60.62387;23.5;47.7
20211011_180046.5;1.192;-0.982;9.389;0.030;-0.036;-0.025;532.0;-46.781;16.669;-58.706;5.0;-32.96043;-60.62387;23.5;47.7
20211011_180047.0;0.378;-0.535;10.371;0.013;-0.027;-0.022;470.8;-47.344;16.519;-58.069;5.0;-32.96046;-60.62372;21.2;48.2
20211011_180047.5;-0.959;-0.968;10.558;-0.062;0.079;-0.018;470.8;-45.581;15.075;-59.494;5.0;-32.96046;-60.62372;21.2;48.2
20211011_180048.0;-1.501;-0.276;9.791;0.007;0.033;-0.002;426.0;-47.606;15.731;-59.925;5.0;-32.96049;-60.62358;21.9;49.0
20211011_180048.5;-0.822;-0.951;9.947;-0.033;0.126;0.029;426.0;-46.669;17.606;-59.625;5.0;-32.96049;-60.62358;21.9;49.0
20211011_180049.0;-0.401;-0.913;9.293;0.015;0.020;-0.002;426.0;-48.056;16.538;-59.138;5.0;-32.96051;-60.62344;22.9;49.5
20211011_180049.5;-0.650;-0.910;9.351;-0.003;0.010;0.021;426.0;-48.263;18.263;-58.669;5.0;-32.96051;-60.62344;22.9;49.5
20211011_180050.0;-0.808;-0.760;10.108;-0.023;-0.060;0.003;426.0;-46.031;15.863;-59.794;5.0;-32.96053;-60.62329;22.2;50.2
20211011_180051.0;-0.186;-1.157;9.963;-0.010;-0.026;0.030;426.0;-46.013;15.394;-58.238;5.0;-32.96053;-60.62329;22.2;50.2
20211011_180051.5;0.622;-1.363;9.772;-0.009;0.069;0.068;426.0;-45.506;17.588;-58.875;5.0;-32.96056;-60.62315;22.6;49.7
20211011_180052.0;0.245;-0.769;7.738;0.006;0.005;-0.023;426.0;-47.719;14.625;-58.669;5.0;-32.96056;-60.62315;22.6;49.7
20211011_180052.5;-0.458;-1.009;9.307;-0.032;-0.029;0.045;426.0;-46.913;16.819;-58.388;5.0;-32.96058;-60.62300;22.4;49.1
20211011_180053.0;0.610;-1.438;10.996;0.031;-0.007;0.003;426.0;-46.369;17.756;-59.025;5.0;-32.96058;-60.62300;22.4;49.1
20211011_180053.5;-1.299;-1.735;12.100;0.012;-0.013;0.018;426.0;-46.163;15.225;-58.856;5.0;-32.96060;-60.62287;20.3;48.0
20211011_180054.0;1.386;-1.219;11.022;-0.015;-0.030;-0.043;426.0;-46.275;14.606;-58.238;5.0;-32.96060;-60.62287;20.3;48.0
20211011_180054.5;0.212;-0.264;10.227;0.043;0.075;0.031;473.3;-47.663;17.944;-56.813;5.0;-32.96062;-60.62273;20.5;47.0
20211011_180055.0;-1.163;-0.374;8.751;-0.009;-0.011;0.003;473.3;-49.031;15.750;-54.919;5.0;-32.96062;-60.62273;20.5;47.0
20211011_180055.5;-0.200;-0.302;7.585;0.015;0.034;-0.025;473.3;-46.763;16.200;-60.244;5.0;-32.96065;-60.62259;21.4;46.3
20211011_180056.0;-1.244;-1.651;10.965;0.045;0.101;0.051;473.3;-46.763;16.200;-58.688;5.0;-32.96065;-60.62259;21.4;46.3
20211011_180056.5;0.428;-1.315;7.645;0.039;-0.034;0.007;473.3;-46.200;16.500;-59.644;5.0;-32.96068;-60.62246;21.6;45.9
20211011_180057.0;1.003;-2.860;10.124;-0.026;0.000;0.022;473.3;-46.631;16.819;-58.856;5.0;-32.96068;-60.62246;21.6;45.9
20211011_180057.5;1.299;-2.216;9.166;-0.056;-0.010;-0.004;473.3;-47.794;17.006;-58.988;5.0;-32.96070;-60.62233;22.7;43.8
20211011_180058.0;0.301;-0.716;9.125;-0.032;0.017;-0.006;528.9;-46.669;17.606;-59.625;5.0;-32.96070;-60.62233;22.7;43.8
20211011_180058.5;-0.195;-2.180;11.985;-0.045;0.005;0.025;528.9;-47.081;17.456;-59.475;5.0;-32.96072;-60.62219;22.7;39.8
20211011_180059.0;0.938;-2.980;9.683;-0.005;-0.000;-0.020;528.9;-47.344;16.519;-59.606;5.0;-32.96072;-60.62219;22.7;39.8
20211011_180059.5;-0.528;-1.993;9.341;-0.028;0.017;-0.014;528.9;-47.644;16.838;-58.050;5.0;-32.96074;-60.62207;23.5;37.9
20211011_180100.0;1.247;-2.465;9.834;-0.063;0.047;-0.019;528.9;-47.344;16.519;-58.838;5.0;-32.96074;-60.62207;23.5;37.9
20211011_180100.5;1.180;-2.741;8.787;-0.080;0.005;0.004;528.9;-48.300;14.963;-59.906;5.0;-32.96077;-60.62198;22.4;33.0
20211011_180101.0;0.339;-2.331;11.142;0.023;0.041;0.029;528.9;-44.794;17.888;-58.125;5.0;-32.96077;-60.62198;22.4;33.0
20211011_180101.5;0.471;-2.489;10.682;-0.019;0.052;0.010;528.9;-45.319;16.163;-60.281;5.0;-32.96079;-60.62189;21.1;28.3
20211011_180102.0;-0.979;-1.383;8.670;0.006;0.036;-0.028;588.3;-45.169;15.694;-58.106;5.0;-32.96079;-60.62189;21.1;28.3
20211011_180102.5;0.128;-3.086;10.618;0.025;-0.036;0.007;588.3;-46.313;15.394;-59.475;5.0;-32.96081;-60.62180;20.1;26.8
20211011_180103.0;0.023;-1.536;10.304;-0.020;0.006;-0.014;588.3;-46.650;17.606;-59.175;5.0;-32.96081;-60.62180;20.1;26.8
20211011_180103.5;-0.262;-1.097;8.883;-0.037;-0.005;0.003;588.3;-46.594;15.713;-58.088;5.0;-32.96082;-60.62171;20.1;24.1
20211011_180104.0;0.162;-3.148;11.108;-0.001;0.031;0.033;588.3;-48.169;15.113;-60.206;5.0;-32.96082;-60.62171;20.1;24.1
20211011_180104.5;-0.892;-1.589;6.662;-0.072;0.003;0.006;588.3;-46.313;15.863;-59.475;5.0;-32.96082;-60.62164;21.7;21.4
20211011_180105.0;-0.895;-2.497;8.840;0.004;0.001;0.028;534.5;-45.431;15.225;-59.194;5.0;-32.96082;-60.62164;21.7;21.4
20211011_180105.5;-0.418;-1.320;9.250;0.022;0.043;-0.015;534.5;-44.888;16.163;-59.513;5.0;-32.96083;-60.62159;20.6;15.8
20211011_180106.0;-0.341;-1.895;10.134;-0.006;-0.004;-0.003;534.5;-48.375;17.325;-59.119;5.0;-32.96083;-60.62159;20.6;15.8
20211011_180106.5;0.454;-3.138;10.414;0.032;0.049;0.012;534.5;-47.344;16.838;-58.069;5.0;-32.96083;-60.62155;20.5;13.1
20211011_180107.0;-0.186;-1.857;9.351;0.056;-0.009;-0.002;534.5;-47.363;16.838;-61.163;5.0;-32.96083;-60.62155;20.5;13.1
20211011_180107.5;0.023;-1.941;9.784;-0.022;0.003;0.012;534.5;-45.450;15.694;-58.106;5.0;-32.96084;-60.62152;20.4;9.3
20211011_180108.0;-0.279;-1.109;9.703;0.001;-0.002;-0.004;534.5;-46.725;15.394;-58.238;5.0;-32.96084;-60.62152;20.4;9.3
20211011_180108.5;-0.248;-0.616;9.652;-0.003;0.003;-0.003;600.4;-46.331;16.181;-58.238;5.0;-32.96085;-60.62149;21.4;6.6
20211011_180109.0;-0.226;-1.042;9.880;-0.004;-0.002;0.001;600.4;-47.494;16.988;-58.219;5.0;-32.96085;-60.62149;21.4;6.6
20211011_180109.5;-0.279;-1.835;9.664;-0.007;-0.005;-0.001;600.4;-45.188;16.481;-58.106;5.0;-32.96085;-60.62147;21.4;6.3
20211011_180110.0;-0.241;-1.226;9.628;-0.001;-0.008;-0.002;600.4;-46.313;15.863;-58.238;5.0;-32.96085;-60.62147;21.4;6.3
20211011_180110.5;-0.272;-1.241;9.894;-0.006;0.011;-0.003;600.4;-47.325;15.731;-58.369;5.0;-32.96085;-60.62146;22.1;4.8
20211011_180111.0;-0.277;-1.718;9.578;-0.002;0.002;-0.000;600.4;-46.313;15.863;-58.238;5.0;-32.96085;-60.62146;22.1;4.8
20211011_180111.5;-0.300;-1.859;9.650;0.001;0.001;0.002;600.4;-45.488;16.800;-56.869;5.0;-32.96085;-60.62145;21.3;3.3
20211011_180112.0;-0.277;-1.332;9.631;-0.002;0.000;-0.002;600.4;-46.350;16.969;-57.469;5.0;-32.96085;-60.62145;21.3;3.3
20211011_180112.5;-0.224;-1.255;9.595;0.000;0.001;-0.000;600.4;-46.894;16.031;-55.275;5.0;-32.96085;-60.62144;21.7;1.3
20211011_180113.0;-0.257;-1.047;9.856;0.001;-0.001;0.001;600.4;-47.494;16.988;-57.131;5.0;-32.96085;-60.62144;21.7;1.3
20211011_180113.5;-0.267;-1.061;9.861;-0.001;-0.000;0.001;600.4;-44.194;17.400;-55.650;5.0;-32.96085;-60.62144;23.8;0.0
20211011_180114.0;-0.207;-0.752;9.559;0.002;-0.002;-0.001;600.4;-45.619;16.969;-56.700;5.0;-32.96085;-60.62144;23.8;0.0
20211011_180114.5;-0.245;-0.989;9.829;-0.002;0.002;0.002;600.4;-46.913;16.500;-57.600;5.0;-32.96085;-60.62144;24.1;0.0
20211011_180115.0;-0.257;-1.040;9.786;0.005;-0.000;-0.001;600.4;-48.844;14.644;-51.656;5.0;-32.96085;-60.62144;24.1;0.0
20211011_180115.5;-0.241;-0.951;9.607;-0.001;0.001;0.001;600.4;-45.188;16.800;-57.338;5.0;-32.96085;-60.62144;24.1;0.0
20211011_180116.0;-0.274;-0.985;9.619;0.001;0.002;-0.000;600.4;-45.506;13.163;-55.144;5.0;-32.96085;-60.62144;24.1;0.0
20211011_180116.5;-0.238;-0.987;9.619;-0.001;-0.001;-0.001;600.4;-47.644;17.306;-56.513;5.0;-32.96085;-60.62144;24.1;0.0
20211011_180117.0;-0.233;-1.059;9.882;-0.001;-0.003;-0.000;600.4;-45.450;15.694;-56.081;5.0;-32.96085;-60.62144;24.1;0.0
20211011_180117.5;-0.233;-0.992;9.609;0.001;0.000;-0.000;600.4;-46.219;17.606;-56.531;5.0;-32.96085;-60.62144;24.1;0.0
20211011_180118.0;-0.231;-1.013;9.825;0.000;-0.000;-0.001;600.4;-46.725;15.075;-57.450;5.0;-32.96085;-60.62144;24.1;0.0
20211011_180118.5;-0.236;-1.001;9.726;0.000;-0.000;-0.002;600.4;-47.625;16.519;-56.044;5.0;-32.96085;-60.62144;24.1;0.0
20211011_180119.0;-0.200;-0.913;9.616;0.000;-0.001;-0.000;600.4;-46.313;16.181;-56.681;5.0;-32.96085;-60.62144;24.1;0.0
20211011_180119.5;-0.238;-1.083;9.635;-0.003;0.002;0.001;600.4;-47.063;16.669;-56.363;5.0;-32.96085;-60.62144;24.1;0.0
20211011_180120.0;-0.207;-0.915;9.631;0.002;0.001;0.000;600.4;-47.344;16.838;-56.513;5.0;-32.96085;-60.62144;24.1;0.0
20211011_180120.5;-0.241;-1.064;9.887;0.000;-0.001;-0.000;600.4;-46.613;16.031;-57.300;5.0;-32.96085;-60.62144;24.1;0.0
20211011_180121.0;-0.253;-0.341;9.571;0.009;-0.001;-0.001;600.4;-47.325;16.050;-57.600;5.0;-32.96085;-60.62144;24.1;0.0
20211011_180121.5;-0.166;0.074;9.810;0.004;0.000;-0.001;600.4;-46.181;16.031;-57.619;5.0;-32.96085;-60.62144;24.1;0.0
20211011_180122.0;-0.054;0.067;9.528;-0.000;-0.001;-0.002;600.4;-48.188;16.219;-57.881;5.0;-32.96085;-60.62144;24.1;0.0
20211011_180122.5;-0.229;-0.616;9.978;-0.002;-0.015;-0.003;600.4;-46.313;15.863;-59.025;5.0;-32.96085;-60.62143;23.3;3.1
20211011_180123.0;-0.296;-0.716;9.820;0.004;-0.002;-0.004;600.4;-47.081;17.456;-58.688;5.0;-32.96085;-60.62143;23.3;3.1
20211011_180123.5;-0.188;-0.812;9.566;-0.003;0.001;-0.006;600.4;-46.931;17.306;-60.394;5.0;-32.96085;-60.62141;23.2;5.2
20211011_180124.0;-0.260;-0.870;9.635;0.010;-0.007;-0.009;600.4;-47.756;15.900;-61.313;5.0;-32.96085;-60.62141;23.2;5.2
20211011_180124.5;-0.078;-1.056;10.042;-0.005;-0.000;-0.015;600.4;-47.063;16.669;-58.219;5.0;-32.96086;-60.62140;23.0;6.1
20211011_180125.0;-0.289;-0.961;9.600;0.010;-0.002;-0.019;600.4;-49.331;15.919;-59.719;5.0;-32.96086;-60.62140;23.0;6.1
20211011_180125.5;-0.236;-1.286;9.540;0.012;-0.003;-0.004;600.4;-46.631;16.500;-59.944;5.0;-32.96086;-60.62138;22.6;6.3
20211011_180126.0;-0.212;-1.202;9.657;0.008;-0.008;-0.005;600.4;-46.706;14.606;-59.006;5.0;-32.96086;-60.62138;22.6;6.3
20211011_180126.5;-0.332;-1.267;9.870;-0.000;-0.002;-0.004;600.4;-47.756;16.200;-58.669;5.0;-32.96086;-60.62136;22.7;4.9
20211011_180127.0;-0.236;-1.402;9.712;-0.003;0.004;0.002;600.4;-48.056;16.538;-59.138;5.0;-32.96086;-60.62136;22.7;4.9
20211011_180127.5;-0.214;-1.340;9.734;-0.000;0.011;0.002;600.4;-46.894;16.031;-58.388;5.0;-32.96086;-60.62135;22.8;3.5
20211011_180128.0;-0.262;-1.107;9.803;0.000;-0.001;-0.001;600.4;-46.894;15.713;-58.388;5.0;-32.96086;-60.62135;22.8;3.5
20211011_180128.5;-0.219;-1.080;9.664;-0.000;-0.005;-0.003;600.4;-47.456;15.413;-58.688;5.0;-32.96086;-60.62134;22.7;2.1
20211011_180129.0;-0.219;-0.937;9.571;0.002;-0.002;-0.002;600.4;-46.050;16.181;-59.494;5.0;-32.96086;-60.62134;22.7;2.1
20211011_180129.5;-0.205;-0.855;9.662;0.001;-0.002;-0.003;600.4;-45.469;16.013;-59.194;5.0;-32.96087;-60.62134;22.2;1.5
20211011_180130.0;-0.224;-0.944;9.667;-0.001;0.001;-0.002;600.4;-47.325;16.050;-59.606;5.0;-32.96087;-60.62134;22.2;1.5
20211011_180130.5;-0.219;-1.145;9.628;-0.001;-0.001;-0.000;600.4;-46.875;15.244;-58.388;5.0;-32.96087;-60.62133;21.9;1.0
20211011_180131.0;-0.190;-1.071;9.657;0.001;0.000;0.002;600.4;-46.594;15.244;-58.069;5.0;-32.96087;-60.62133;21.9;1.0
20211011_180131.5;-0.186;-0.745;9.638;0.002;-0.001;0.001;600.4;-45.900;16.013;-59.963;5.0;-32.96086;-60.62133;22.1;0.0
20211011_180132.0;-0.198;-0.865;9.746;-0.001;-0.000;-0.000;600.4;-46.744;15.394;-60.244;5.0;-32.96086;-60.62133;21.7;0.0
20211011_180132.5;-0.200;-0.843;9.614;-0.000;-0.001;-0.002;600.4;-46.050;16.650;-60.263;5.0;-32.96086;-60.62133;21.7;0.0
20211011_180133.0;-0.121;-0.767;9.638;0.001;-0.002;-0.001;600.4;-46.744;15.881;-57.919;5.0;-32.96086;-60.62133;21.3;0.0
20211011_180133.5;-0.178;-0.733;9.578;0.001;-0.002;-0.002;600.4;-47.569;14.156;-59.138;5.0;-32.96086;-60.62133;21.3;0.0
20211011_180134.0;-0.186;-0.740;9.717;0.000;-0.002;-0.001;600.4;-45.844;14.119;-58.875;5.0;-32.96086;-60.62133;21.3;0.0
20211011_180134.5;-0.209;-0.846;9.863;0.000;-0.000;0.000;600.4;-46.050;16.181;-60.263;5.0;-32.96086;-60.62133;21.3;0.0
20211011_180135.0;-0.183;-0.839;9.688;0.001;-0.000;-0.001;600.4;-46.294;15.075;-59.794;5.0;-32.96086;-60.62133;21.3;0.6
20211011_180135.5;-0.169;-0.829;9.657;-0.001;-0.001;-0.001;600.4;-45.281;14.588;-59.813;5.0;-32.96086;-60.62133;21.3;0.6
20211011_180136.0;-0.164;-0.712;9.743;0.001;0.001;-0.000;600.4;-46.294;15.075;-59.025;5.0;-32.96086;-60.62133;21.3;0.0
20211011_180136.5;-0.140;-0.295;9.985;0.010;-0.000;-0.002;600.4;-47.006;14.625;-58.219;5.0;-32.96086;-60.62133;21.3;0.0
20211011_180137.0;-0.231;-0.014;10.156;-0.000;0.004;-0.009;600.4;-45.563;14.588;-58.256;5.0;-32.96086;-60.62133;20.9;1.8
20211011_180137.5;-0.095;0.876;9.805;0.004;0.007;-0.021;600.4;-46.144;14.925;-58.406;5.0;-32.96086;-60.62133;20.9;1.8
20211011_180138.0;-0.080;1.519;9.568;0.002;-0.005;-0.030;600.4;-46.200;16.500;-59.175;5.0;-32.96086;-60.62131;21.2;6.0
20211011_180138.5;-0.061;0.903;9.937;0.009;0.007;-0.008;600.4;-47.325;15.731;-58.838;5.0;-32.96086;-60.62131;21.2;6.0
20211011_180139.0;-0.008;-0.069;9.772;-0.001;0.004;-0.011;600.4;-46.163;15.225;-58.406;5.0;-32.96087;-60.62128;21.3;11.9
20211011_180139.5;0.354;-0.913;9.635;-0.002;-0.003;-0.056;600.4;-45.844;14.119;-59.644;5.0;-32.96087;-60.62128;21.3;11.9
20211011_180140.0;0.311;-0.922;9.576;-0.014;0.012;-0.037;600.4;-45.450;15.694;-59.663;5.0;-32.96088;-60.62125;21.0;12.9
20211011_180140.5;-0.150;-0.949;9.913;-0.011;0.007;-0.025;600.4;-45.113;13.631;-61.219;5.0;-32.96088;-60.62125;21.0;12.9
20211011_180141.0;-0.068;-0.879;9.348;-0.007;-0.018;-0.022;600.4;-45.263;14.269;-58.256;5.0;-32.96090;-60.62122;19.6;12.5
20211011_180141.5;-0.535;-1.471;10.040;-0.008;-0.022;0.007;600.4;-45.806;13.331;-59.963;5.0;-32.96090;-60.62122;19.6;12.5
20211011_180142.0;-0.195;-1.404;9.896;0.001;-0.029;0.026;600.4;-45.975;14.288;-58.238;5.0;-32.96091;-60.62119;19.2;11.3
20211011_180143.0;-0.643;-1.960;9.377;-0.002;-0.010;0.060;600.4;-44.400;14.100;-58.913;5.0;-32.96091;-60.62119;19.2;11.3
20211011_180143.5;-0.188;-2.786;9.777;0.009;0.024;0.036;600.4;-45.150;14.906;-60.431;5.0;-32.96092;-60.62116;18.4;8.9
20211011_180144.0;-0.336;-1.457;9.602;0.009;0.012;0.043;600.4;-45.450;15.694;-58.875;5.0;-32.96092;-60.62116;18.4;8.9
20211011_180144.5;-0.018;-1.088;9.600;0.010;-0.001;0.040;600.4;-44.381;13.631;-59.981;5.0;-32.96092;-60.62115;20.3;4.4
20211011_180145.0;-0.224;-1.375;9.911;0.000;-0.006;0.035;600.4;-46.594;15.713;-59.156;5.0;-32.96092;-60.62115;20.3;4.4
20211011_180145.5;-0.114;-1.150;9.813;-0.002;-0.004;0.027;600.4;-44.738;15.675;-59.213;5.0;-32.96092;-60.62113;22.5;3.0
20211011_180146.0;-0.090;-0.920;9.552;0.000;-0.006;0.019;600.4;-45.600;16.163;-58.256;5.0;-32.96092;-60.62113;22.5;3.0
20211011_180146.5;-0.193;-0.788;9.549;0.000;-0.000;0.018;600.4;-46.331;16.181;-60.563;5.0;-32.96092;-60.62112;22.3;1.7
20211011_180147.0;-0.308;-0.664;9.817;-0.001;0.006;0.034;600.4;-47.550;13.669;-58.050;5.0;-32.96092;-60.62112;22.3;1.7
20211011_180147.5;-0.293;-0.305;9.973;0.001;-0.001;0.046;600.4;-45.263;14.269;-60.600;5.0;-32.96092;-60.62112;23.6;1.9
20211011_180148.0;-0.147;-0.815;9.703;-0.008;-0.004;0.052;600.4;-46.800;17.456;-59.475;5.0;-32.96092;-60.62112;23.6;1.9
20211011_180148.5;-0.217;-0.257;9.576;0.004;-0.005;0.056;600.4;-46.106;18.225;-58.725;5.0;-32.96092;-60.62111;23.4;2.7
20211011_180149.0;-0.135;-0.170;9.940;-0.003;-0.005;0.074;600.4;-48.975;18.281;-58.950;5.0;-32.96092;-60.62111;23.4;2.7
20211011_180149.5;-0.439;-0.673;9.832;-0.007;-0.016;0.081;600.4;-46.388;18.244;-57.150;5.0;-32.96092;-60.62110;24.0;3.7
20211011_180150.0;-0.236;-0.879;9.765;-0.006;-0.005;0.087;600.4;-47.138;19.031;-58.219;5.0;-32.96092;-60.62110;24.0;3.7
20211011_180150.5;-0.221;-0.640;9.868;0.008;0.006;0.084;600.4;-48.563;19.069;-60.525;5.0;-32.96092;-60.62108;24.2;4.4
20211011_180151.0;-0.332;-0.214;9.638;0.004;-0.007;0.080;600.4;-47.025;20.306;-58.069;5.0;-32.96092;-60.62108;24.2;4.4
20211011_180151.5;-0.461;-0.618;9.497;-0.003;-0.007;0.131;544.3;-47.081;22.350;-57.619;5.0;-32.96092;-60.62107;24.8;5.4
20211011_180152.0;-0.537;-0.774;9.932;0.006;-0.005;0.152;544.3;-48.244;22.688;-56.813;5.0;-32.96092;-60.62107;24.8;5.4
20211011_180152.5;-0.614;0.036;9.966;-0.009;-0.010;0.193;544.3;-47.813;22.688;-58.069;5.0;-32.96091;-60.62105;25.9;6.1
20211011_180153.0;-1.235;-0.110;9.872;-0.009;-0.014;0.281;544.3;-47.025;25.200;-57.150;5.0;-32.96091;-60.62105;25.9;6.1
20211011_180153.5;-1.474;0.005;9.501;-0.015;-0.041;0.364;493.2;-45.956;27.544;-58.275;5.0;-32.96090;-60.62103;26.4;8.9
20211011_180154.0;-1.809;-0.484;9.832;-0.004;-0.023;0.416;443.5;-44.175;30.825;-57.694;5.0;-32.96090;-60.62103;26.4;8.9
20211011_180154.5;-2.066;0.141;9.700;-0.007;-0.058;0.451;443.5;-41.044;31.725;-55.294;5.0;-32.96088;-60.62100;27.6;11.6
20211011_180155.0;-2.191;0.345;9.638;-0.002;-0.025;0.416;403.1;-37.688;34.669;-56.775;5.0;-32.96088;-60.62100;27.6;11.6
20211011_180155.5;-0.779;-0.930;9.896;-0.025;-0.013;0.173;403.1;-34.781;33.356;-56.363;5.0;-32.96084;-60.62099;28.5;15.0
20211011_180156.0;-0.478;-0.700;9.918;-0.009;-0.030;0.053;403.1;-36.281;35.438;-56.813;5.0;-32.96084;-60.62099;28.5;15.0
20211011_180156.5;-1.450;0.905;9.650;0.029;-0.035;0.206;403.1;-33.075;34.125;-57.188;5.0;-32.96081;-60.62097;29.0;16.0
20211011_180157.0;-1.683;-0.014;9.707;-0.001;-0.047;0.229;403.1;-31.969;35.681;-57.225;5.0;-32.96081;-60.62097;29.0;16.0
20211011_180157.5;-1.261;0.043;10.081;-0.016;-0.017;0.164;403.1;-30.488;34.069;-57.713;5.0;-32.96076;-60.62097;29.5;17.3
20211011_180158.0;-0.753;-0.336;9.908;0.010;0.008;0.075;450.1;-29.644;34.219;-57.113;5.0;-32.96076;-60.62097;29.5;17.3
20211011_180158.5;-0.523;-0.501;9.621;-0.030;-0.003;0.040;504.0;-30.150;37.219;-58.031;5.0;-32.96071;-60.62098;29.5;19.5
20211011_180159.0;-0.827;-0.400;10.141;-0.000;-0.021;0.011;504.0;-28.538;35.456;-58.688;5.0;-32.96071;-60.62098;29.5;19.5
20211011_180159.5;-0.281;-0.712;9.623;-0.011;0.007;0.012;504.0;-29.625;34.219;-55.556;5.0;-32.96066;-60.62099;29.7;20.4
20211011_180200.0;-0.523;-0.664;9.786;0.037;-0.005;0.013;504.0;-30.563;36.769;-56.156;5.0;-32.96066;-60.62099;29.7;20.4
20211011_180200.5;-0.324;0.110;9.719;-0.005;0.004;0.008;453.1;-33.244;34.763;-60.131;5.0;-32.96061;-60.62101;30.4;22.0
20211011_180201.0;-0.727;0.091;9.861;0.016;-0.009;-0.004;453.1;-26.475;34.481;-55.781;5.0;-32.96061;-60.62101;30.4;22.0
20211011_180201.5;-0.437;0.594;10.038;-0.004;-0.004;0.003;408.2;-27.581;37.331;-56.850;5.0;-32.96055;-60.62102;30.7;24.3
20211011_180202.0;0.174;-0.958;9.664;0.002;0.018;-0.057;408.2;-30.206;38.813;-59.588;5.0;-32.96055;-60.62102;30.7;24.3
20211011_180202.5;0.257;-0.439;9.537;0.022;0.013;-0.081;408.2;-29.381;35.625;-54.638;5.0;-32.96049;-60.62104;29.6;27.5
20211011_180203.0;0.181;0.038;9.803;0.033;-0.004;-0.047;370.5;-30.206;39.131;-56.963;5.0;-32.96049;-60.62104;29.6;27.5
20211011_180203.5;-0.830;0.306;9.403;0.003;-0.032;-0.004;370.5;-32.175;37.894;-55.969;5.0;-32.96042;-60.62106;29.7;28.1
20211011_180204.0;-0.142;0.541;9.712;0.013;0.004;0.017;370.5;-30.863;36.769;-56.944;5.0;-32.96042;-60.62106;29.7;28.1
20211011_180204.5;-0.909;-0.855;10.314;-0.017;0.023;0.043;370.5;-31.294;36.769;-55.688;5.0;-32.96034;-60.62107;29.4;32.2
20211011_180205.0;-0.722;1.164;9.521;0.027;-0.001;0.047;414.8;-29.269;36.263;-55.575;5.0;-32.96034;-60.62107;29.4;32.2
20211011_180205.5;-1.077;0.297;10.223;-0.008;0.002;0.064;414.8;-27.956;35.925;-57.000;5.0;-32.96027;-60.62109;28.0;32.9
20211011_180206.0;-1.213;0.175;9.908;-0.027;-0.023;0.021;414.8;-29.231;35.006;-55.575;5.0;-32.96027;-60.62109;28.0;32.9
20211011_180206.5;-0.631;0.596;9.992;-0.031;-0.001;0.014;414.8;-27.919;34.819;-54.675;5.0;-32.96018;-60.62111;28.9;36.1
20211011_180207.0;-0.449;0.464;9.674;-0.031;0.014;0.013;460.9;-26.325;34.163;-55.331;5.0;-32.96018;-60.62111;28.9;36.1
20211011_180207.5;0.044;0.426;9.336;0.035;-0.051;-0.005;460.9;-27.113;36.225;-57.638;5.0;-32.96007;-60.62114;29.6;41.0
20211011_180208.0;-0.274;-0.312;10.069;0.024;0.032;0.011;512.2;-27.694;36.713;-57.000;5.0;-32.96007;-60.62114;29.6;41.0
20211011_180208.5;-0.681;0.019;9.913;0.006;-0.020;-0.001;512.2;-30.544;35.644;-55.388;5.0;-32.95997;-60.62118;29.6;44.4
20211011_180209.0;-0.537;0.227;9.300;-0.027;0.001;0.011;512.2;-29.419;36.750;-58.050;5.0;-32.95997;-60.62118;29.6;44.4
20211011_180209.5;-0.813;-0.120;8.466;-0.018;-0.029;0.009;512.2;-27.769;34.181;-57.938;5.0;-32.95986;-60.62122;30.1;47.1
20211011_180210.0;-0.169;0.077;9.717;0.011;-0.065;-0.030;512.2;-25.800;35.569;-55.500;5.0;-32.95986;-60.62122;30.1;47.1
20211011_180210.5;-0.504;-0.038;9.406;-0.056;0.028;-0.037;512.2;-27.656;35.606;-55.463;5.0;-32.95974;-60.62126;30.5;50.3
20211011_180211.0;-0.600;-0.980;8.297;-0.020;-0.012;0.000;512.2;-28.538;36.244;-56.363;5.0;-32.95974;-60.62126;30.5;50.3
20211011_180211.5;-0.835;-1.042;9.549;0.032;-0.057;-0.010;465.2;-30.094;34.856;-56.944;5.0;-32.95961;-60.62130;31.0;53.0
20211011_180212.0;-0.600;-0.800;9.511;-0.029;-0.016;0.006;419.3;-27.450;33.075;-57.169;5.0;-32.95961;-60.62130;31.0;53.0
20211011_180212.5;-0.049;-0.329;8.546;-0.043;0.016;-0.015;419.3;-27.638;34.500;-57.788;5.0;-32.95948;-60.62134;30.5;52.8
20211011_180213.0;0.040;-0.499;9.166;0.039;0.044;0.012;419.3;-30.113;35.644;-58.819;5.0;-32.95948;-60.62134;30.5;52.8
20211011_180213.5;-0.437;-0.851;10.599;0.013;0.007;0.012;419.3;-26.288;37.163;-57.825;5.0;-32.95936;-60.62138;30.7;52.7
20211011_180214.0;-0.461;-0.695;9.501;-0.008;0.012;0.000;419.3;-28.688;35.944;-57.769;5.0;-32.95936;-60.62138;30.7;52.7
20211011_180214.5;-0.123;-0.503;8.850;-0.027;0.016;0.023;470.4;-28.575;37.350;-56.831;5.0;-32.95924;-60.62142;31.8;52.6
20211011_180215.0;-0.090;-0.661;9.580;0.013;0.004;-0.007;470.4;-27.638;34.500;-58.088;5.0;-32.95910;-60.62147;31.5;52.7
20211011_180215.5;-0.042;-0.690;9.473;0.026;-0.031;-0.014;470.4;-26.344;34.631;-56.419;5.0;-32.95910;-60.62147;31.5;52.7
20211011_180216.0;-0.674;-0.599;9.485;0.000;-0.031;-0.006;470.4;-28.500;34.669;-57.150;5.0;-32.95898;-60.62151;32.2;52.5
20211011_180216.5;-0.715;-0.599;9.753;-0.009;-0.002;0.005;470.4;-26.794;35.438;-56.400;5.0;-32.95898;-60.62151;32.2;52.5
20211011_180217.0;0.159;-0.851;10.242;-0.013;0.011;0.001;424.1;-27.488;34.650;-55.613;5.0;-32.95885;-60.62156;31.6;52.3
20211011_180217.5;-0.924;-0.750;9.719;0.027;0.006;0.011;424.1;-27.956;35.925;-57.000;5.0;-32.95885;-60.62156;31.6;52.3
20211011_180218.0;-0.399;-1.090;10.175;0.053;-0.005;0.002;424.1;-27.188;34.013;-55.781;5.0;-32.95873;-60.62160;32.2;51.8
20211011_180218.5;-0.054;-1.112;9.114;0.002;0.018;0.004;424.1;-26.775;34.650;-56.400;5.0;-32.95873;-60.62160;32.2;51.8
20211011_180219.0;-0.533;-1.006;10.081;-0.031;-0.007;-0.015;424.1;-26.944;35.588;-57.338;5.0;-32.95860;-60.62165;31.0;51.2
20211011_180219.5;-0.336;-0.896;9.928;0.020;0.038;0.004;424.1;-25.913;34.631;-56.888;5.0;-32.95860;-60.62165;31.0;51.2
20211011_180220.0;-0.497;-1.212;10.074;0.042;0.014;0.002;424.1;-27.431;32.606;-57.619;5.0;-32.95848;-60.62169;31.3;49.8
20211011_180220.5;-0.547;-0.937;9.317;-0.020;0.000;-0.003;424.1;-28.219;34.988;-56.831;5.0;-32.95848;-60.62169;31.3;49.8
20211011_180221.0;-0.051;-0.898;9.585;0.015;0.026;0.006;376.1;-28.256;36.244;-56.381;5.0;-32.95836;-60.62173;31.4;48.7
20211011_180221.5;-0.346;-1.238;9.353;-0.008;0.007;0.001;376.1;-27.206;34.500;-56.550;5.0;-32.95836;-60.62173;31.4;48.7
20211011_180222.0;0.090;-1.035;10.400;0.023;0.002;-0.002;506.1;-25.088;35.869;-54.731;5.0;-32.95825;-60.62178;31.4;47.7
20211011_180223.0;-0.157;-1.100;9.358;-0.066;0.003;0.007;572.8;-29.325;33.263;-56.963;5.0;-32.95825;-60.62178;31.4;47.7
20211011_180223.5;-0.339;-0.819;9.492;0.021;-0.000;-0.003;572.8;-22.031;34.556;-55.425;5.0;-32.95813;-60.62182;32.2;46.6
20211011_180224.0;-0.229;-0.369;9.638;0.041;0.017;0.005;572.8;-28.238;35.456;-57.150;5.0;-32.95813;-60.62182;32.2;46.6
20211011_180224.5;-0.221;-0.388;7.585;-0.132;0.022;-0.019;572.8;-28.406;36.413;-56.213;5.0;-32.95802;-60.62186;32.1;45.9
20211011_180225.0;0.147;0.103;8.754;-0.022;0.048;0.023;519.1;-28.406;36.413;-57.300;5.0;-32.95802;-60.62186;32.1;45.9
20211011_180225.5;-0.186;0.113;9.674;0.006;0.001;-0.019;519.1;-31.575;36.469;-58.463;5.0;-32.95790;-60.62190;32.8;46.9
20211011_180226.0;-0.152;-0.558;9.396;0.009;0.004;0.005;470.9;-27.525;35.756;-56.381;5.0;-32.95790;-60.62190;32.8;46.9
20211011_180226.5;0.183;-0.286;9.286;-0.033;0.015;0.001;470.9;-28.650;34.838;-57.750;5.0;-32.95778;-60.62194;34.1;49.4
20211011_180227.0;0.133;-0.654;9.494;0.020;0.017;0.010;470.9;-27.769;34.181;-58.406;5.0;-32.95778;-60.62194;34.1;49.4
20211011_180227.5;-0.114;-0.867;10.127;0.011;-0.004;0.006;470.9;-26.944;35.588;-56.250;5.0;-32.95766;-60.62199;34.4;50.2
20211011_180228.0;-0.763;-0.745;9.571;-0.012;0.028;0.016;470.9;-28.969;35.794;-56.813;5.0;-32.95766;-60.62199;34.4;50.2
20211011_180228.5;-0.016;-0.621;9.712;-0.005;0.023;0.012;470.9;-25.688;36.994;-56.119;5.0;-32.95754;-60.62204;34.3;49.9
20211011_180229.0;-0.193;-0.551;9.578;-0.030;-0.010;-0.007;470.9;-28.238;35.775;-56.381;5.0;-32.95754;-60.62204;34.3;49.9
20211011_180229.5;-0.035;-0.767;9.923;-0.009;-0.000;0.000;470.9;-28.556;36.244;-57.150;5.0;-32.95742;-60.62207;36.6;49.7
20211011_180230.0;-0.581;-0.788;9.643;-0.004;-0.002;0.008;470.9;-28.256;36.244;-56.381;5.0;-32.95742;-60.62207;36.6;49.7
20211011_180230.5;-0.018;-0.843;9.863;-0.008;0.016;0.006;470.9;-26.794;34.950;-56.869;5.0;-32.95731;-60.62211;38.5;48.7
20211011_180231.0;-0.727;-0.819;9.537;0.020;-0.010;-0.003;524.6;-28.256;36.244;-58.388;5.0;-32.95731;-60.62211;38.5;48.7
20211011_180231.5;-0.109;-0.573;9.233;-0.045;-0.002;-0.013;524.6;-25.950;35.738;-56.119;5.0;-32.95719;-60.62215;39.6;48.2
20211011_180232.0;-0.102;-0.676;9.521;0.008;-0.007;-0.001;470.8;-28.519;34.669;-61.481;5.0;-32.95719;-60.62215;39.6;48.2
20211011_180232.5;-0.482;-0.611;9.509;0.002;0.011;-0.000;425.8;-28.913;33.881;-57.900;5.0;-32.95708;-60.62219;39.5;48.3
20211011_180233.0;-0.439;-0.628;10.244;-0.010;-0.001;-0.001;425.8;-28.388;35.625;-57.300;5.0;-32.95708;-60.62219;39.5;48.3
20211011_180233.5;-0.772;-0.637;9.837;0.010;-0.011;-0.000;425.8;-26.794;35.438;-57.656;5.0;-32.95696;-60.62223;39.6;48.7
20211011_180234.0;-0.698;-0.657;9.269;0.010;-0.020;-0.001;425.8;-26.775;34.650;-56.100;5.0;-32.95696;-60.62223;39.6;48.7
20211011_180234.5;0.020;-0.690;9.008;0.038;0.019;0.001;425.8;-27.131;37.013;-57.169;5.0;-32.95684;-60.62227;39.4;49.0
20211011_180235.0;-0.888;-0.807;10.002;-0.009;0.010;0.017;473.7;-28.631;34.050;-57.750;5.0;-32.95684;-60.62227;39.4;49.0
20211011_180235.5;-0.061;-0.894;9.358;0.019;-0.004;0.005;473.7;-27.113;36.544;-56.869;5.0;-32.95672;-60.62232;37.9;49.6
20211011_180236.0;-0.296;-0.999;9.798;0.019;-0.058;-0.008;473.7;-28.556;36.244;-57.150;5.0;-32.95672;-60.62232;37.9;49.6
20211011_180236.5;-0.078;-0.851;9.133;-0.006;0.030;-0.001;473.7;-28.669;35.306;-56.213;5.0;-32.95659;-60.62236;39.3;49.5
20211011_180237.0;0.080;-1.066;10.646;0.010;0.005;-0.006;473.7;-26.475;34.013;-56.569;5.0;-32.95659;-60.62236;39.3;49.5
20211011_180237.5;-0.470;-0.585;9.537;-0.015;0.005;0.009;473.7;-26.813;35.738;-54.863;5.0;-32.95647;-60.62240;39.0;49.0
20211011_180238.0;-0.583;-0.908;9.980;0.005;-0.009;0.026;473.7;-27.206;34.800;-57.319;5.0;-32.95647;-60.62240;39.0;49.0
20211011_180238.5;-1.005;-0.963;8.999;-0.014;0.022;0.041;429.4;-25.519;35.569;-56.288;5.0;-32.95636;-60.62244;38.5;48.6
20211011_180239.0;-0.815;-1.378;9.470;-0.041;0.020;0.043;429.4;-26.231;35.588;-56.269;5.0;-32.95636;-60.62244;38.5;48.6
20211011_180239.5;-0.974;-1.620;10.443;0.012;-0.026;0.035;429.4;-23.044;34.575;-56.963;5.0;-32.95624;-60.62249;38.8;48.0
20211011_180240.0;-0.837;-1.097;9.377;0.015;-0.017;0.037;429.4;-23.306;33.956;-54.769;5.0;-32.95624;-60.62249;38.8;48.0
20211011_180240.5;-0.420;-1.078;9.406;0.011;0.010;0.037;429.4;-24.975;36.975;-56.138;5.0;-32.95613;-60.62254;37.3;45.6
20211011_180241.0;-0.375;-1.308;9.786;-0.004;-0.012;0.030;429.4;-26.306;33.375;-59.213;5.0;-32.95613;-60.62254;37.3;45.6
20211011_180241.5;-0.743;-1.171;9.839;-0.012;0.010;0.031;429.4;-24.169;34.125;-56.156;5.0;-32.95602;-60.62259;36.6;44.1
20211011_180242.0;-0.758;-1.092;9.324;-0.003;-0.005;0.030;429.4;-25.538;36.356;-56.588;5.0;-32.95602;-60.62259;36.6;44.1
20211011_180242.5;-0.485;-1.258;9.403;-0.023;0.007;0.016;429.4;-26.775;34.650;-58.725;5.0;-32.95592;-60.62265;36.3;42.9
20211011_180243.0;-0.293;-1.262;10.555;0.050;0.016;0.034;429.4;-24.769;34.763;-58.163;5.0;-32.95592;-60.62265;36.3;42.9
20211011_180243.5;-1.007;-0.896;10.771;0.234;-0.048;0.026;429.4;-22.613;34.406;-56.344;5.0;-32.95582;-60.62271;36.9;41.3
20211011_180244.0;0.289;-2.345;11.607;0.109;0.036;0.017;429.4;-25.856;32.569;-56.419;5.0;-32.95582;-60.62271;36.9;41.3
20211011_180244.5;-0.667;-1.782;9.386;-0.013;-0.010;0.007;429.4;-24.038;34.444;-57.394;5.0;-32.95573;-60.62276;37.9;39.4
20211011_180245.0;-0.353;-2.043;9.755;-0.009;-0.001;0.008;478.0;-21.150;33.600;-57.469;5.0;-32.95573;-60.62276;37.9;39.4
20211011_180245.5;-0.372;-1.538;9.779;-0.005;-0.009;-0.005;535.6;-24.506;35.400;-58.013;5.0;-32.95565;-60.62281;37.9;35.3
20211011_180246.0;-0.267;-1.293;9.272;0.012;-0.021;-0.000;535.6;-25.838;31.950;-59.213;5.0;-32.95565;-60.62281;37.9;35.3
20211011_180246.5;-0.226;-1.397;9.533;0.005;0.000;-0.001;535.6;-24.450;33.806;-57.225;5.0;-32.95557;-60.62287;38.4;33.0
20211011_180247.0;0.119;-1.205;9.513;-0.000;0.007;0.000;478.8;-24.188;34.125;-58.800;5.0;-32.95557;-60.62287;38.4;33.0
20211011_180247.5;-0.344;-0.980;10.124;0.007;-0.004;0.001;432.9;-22.894;34.425;-55.556;5.0;-32.95550;-60.62291;38.9;31.0
20211011_180248.0;-0.403;-0.235;9.559;-0.000;0.005;0.000;432.9;-23.663;36.319;-55.856;5.0;-32.95550;-60.62291;38.9;31.0
20211011_180248.5;-0.518;-0.353;9.810;-0.011;0.011;0.017;432.9;-24.919;34.931;-56.456;5.0;-32.95543;-60.62296;38.3;30.7
20211011_180249.0;-0.214;-0.391;10.033;0.001;-0.019;0.003;432.9;-23.006;33.000;-58.500;5.0;-32.95543;-60.62296;38.3;30.7
20211011_180249.5;-0.322;-0.740;10.054;-0.013;0.001;0.004;485.1;-23.944;31.275;-55.538;5.0;-32.95536;-60.62301;37.7;32.9
20211011_180250.0;-0.236;-0.798;9.784;0.008;-0.007;-0.001;485.1;-24.469;34.125;-56.925;5.0;-32.95536;-60.62301;37.7;32.9
20211011_180250.5;-0.087;-0.398;9.712;0.004;-0.009;-0.002;485.1;-24.338;34.763;-57.863;5.0;-32.95529;-60.62306;38.9;33.3
20211011_180251.0;-0.291;-0.424;9.640;-0.007;-0.000;-0.013;485.1;-23.569;32.850;-57.094;5.0;-32.95529;-60.62306;38.9;33.3
20211011_180251.5;-0.095;-0.403;10.393;0.021;-0.001;-0.007;539.4;-22.350;35.663;-55.725;5.0;-32.95521;-60.62311;38.5;33.8
20211011_180252.0;-0.296;-0.353;9.990;-0.001;-0.011;-0.009;539.4;-24.863;33.338;-56.456;5.0;-32.95513;-60.62316;38.6;35.6
20211011_180252.5;-0.059;-0.357;10.168;0.009;0.003;-0.006;487.0;-23.419;31.913;-63.000;5.0;-32.95513;-60.62316;38.6;35.6
20211011_180253.0;-0.099;-0.393;9.959;0.018;-0.035;-0.007;487.0;-23.456;34.106;-58.031;5.0;-32.95505;-60.62321;38.4;37.1
20211011_180253.5;-0.391;-0.393;10.362;0.027;0.028;0.002;487.0;-21.844;32.813;-57.919;5.0;-32.95505;-60.62321;38.4;37.1
20211011_180254.0;-0.269;-0.788;9.691;0.004;-0.018;0.005;487.0;-20.794;36.281;-57.169;5.0;-32.95505;-60.62321;38.4;37.1
20211011_180254.5;-0.159;-0.724;9.686;-0.015;0.004;-0.000;487.0;-25.856;32.569;-58.444;5.0;-32.95496;-60.62327;38.4;38.3
20211011_180255.0;0.107;-1.013;9.973;0.003;-0.017;-0.000;487.0;-23.269;32.363;-56.644;5.0;-32.95488;-60.62334;35.9;38.3
20211011_180255.5;-0.537;-0.810;9.817;0.019;0.008;0.005;487.0;-26.456;33.694;-57.338;5.0;-32.95488;-60.62334;35.9;38.3
20211011_180256.0;-0.075;-0.489;9.698;0.001;0.030;0.004;487.0;-22.125;32.344;-57.131;5.0;-32.95480;-60.62340;34.5;37.3
20211011_180256.5;-0.315;-0.503;9.856;0.015;-0.002;0.002;487.0;-22.538;32.363;-55.575;5.0;-32.95480;-60.62340;34.5;37.3
20211011_180257.0;-0.427;-0.630;9.597;0.008;0.004;0.010;543.1;-19.838;32.944;-57.038;5.0;-32.95472;-60.62345;34.8;37.8
20211011_180257.5;-0.099;-0.755;9.822;0.004;0.012;0.006;543.1;-26.325;33.844;-56.888;5.0;-32.95472;-60.62345;34.8;37.8
20211011_180258.0;-0.384;-0.913;9.944;-0.005;-0.009;-0.000;543.1;-25.163;33.356;-56.906;5.0;-32.95463;-60.62351;34.7;39.0
20211011_180258.5;-0.212;-0.669;9.585;-0.013;0.022;0.008;492.6;-23.756;34.125;-58.500;5.0;-32.95463;-60.62351;34.7;39.0
20211011_180259.0;-0.411;-0.405;9.202;-0.029;-0.008;0.005;492.6;-22.575;33.150;-56.344;5.0;-32.95454;-60.62356;34.5;39.3
20211011_180259.5;-0.071;-0.544;9.432;-0.037;-0.028;0.007;492.6;-24.919;34.613;-57.225;5.0;-32.95454;-60.62356;34.5;39.3
20211011_180300.0;-0.063;-0.807;10.282;0.004;0.031;0.009;492.6;-24.169;33.806;-56.925;5.0;-32.95445;-60.62362;33.8;39.5
20211011_180300.5;-0.497;-0.877;10.069;-0.014;-0.001;0.008;492.6;-23.025;33.788;-57.731;5.0;-32.95445;-60.62362;33.8;39.5
20211011_180301.0;-0.382;-0.793;9.571;-0.032;-0.018;0.007;492.6;-22.144;33.150;-57.131;5.0;-32.95437;-60.62368;34.4;39.1
20211011_180301.5;-0.327;-0.980;9.774;0.017;0.015;0.023;492.6;-20.269;37.688;-55.481;5.0;-32.95437;-60.62368;34.4;39.1
20211011_180302.0;-0.159;-0.867;9.260;-0.004;0.028;0.017;492.6;-23.438;33.000;-59.269;5.0;-32.95429;-60.62373;34.3;38.4
20211011_180303.0;-0.502;-0.745;9.279;-0.003;0.009;0.017;492.6;-22.594;33.619;-60.544;5.0;-32.95429;-60.62373;34.3;38.4
20211011_180303.5;-0.406;-0.937;10.239;0.003;-0.015;0.010;492.6;-22.350;35.663;-55.725;5.0;-32.95420;-60.62379;34.3;37.0
20211011_180304.0;-0.528;-0.846;10.199;0.007;0.001;0.009;492.6;-26.531;35.906;-58.594;5.0;-32.95420;-60.62379;34.3;37.0
20211011_180304.5;0.030;-1.119;9.755;0.009;-0.015;0.008;547.8;-23.344;34.744;-58.200;5.0;-32.95411;-60.62385;34.8;36.4
20211011_180305.0;-0.291;-1.001;10.682;0.038;0.016;0.020;610.7;-20.194;35.644;-56.569;5.0;-32.95411;-60.62385;34.8;36.4
20211011_180305.5;-0.571;-0.448;9.413;-0.020;-0.019;0.037;610.7;-24.450;33.806;-57.225;5.0;-32.95403;-60.62391;35.1;36.1
20211011_180306.0;-0.504;-0.408;9.533;-0.002;-0.019;0.026;610.7;-26.550;36.375;-58.894;5.0;-32.95403;-60.62391;35.1;36.1
20211011_180306.5;-0.403;-0.360;9.791;0.023;0.004;0.027;610.7;-19.200;31.200;-55.331;5.0;-32.95395;-60.62397;35.0;36.8
20211011_180307.0;-0.121;-0.341;9.600;0.009;0.001;-0.020;610.7;-16.238;32.888;-55.556;5.0;-32.95395;-60.62397;35.0;36.8
20211011_180307.5;-0.212;-0.781;9.597;-0.014;-0.038;-0.021;610.7;-20.700;33.113;-57.938;5.0;-32.95388;-60.62404;35.2;37.4
20211011_180308.0;-0.657;-0.965;9.748;0.026;0.022;0.029;610.7;-24.731;32.869;-60.956;5.0;-32.95388;-60.62404;35.2;37.4
20211011_180308.5;-0.741;-0.977;9.722;0.001;0.014;0.022;610.7;-13.369;27.938;-53.438;5.0;-32.95380;-60.62410;35.0;36.8
20211011_180309.0;-0.890;-0.731;9.396;-0.031;0.009;0.041;610.7;-22.275;32.513;-58.519;5.0;-32.95380;-60.62410;35.0;36.8
20211011_180309.5;-0.542;-0.733;9.717;-0.019;-0.052;0.043;610.7;-29.981;40.706;-61.931;5.0;-32.95373;-60.62417;35.0;36.1
20211011_180310.0;-0.813;-0.994;9.190;0.010;-0.026;0.042;610.7;-19.125;28.519;-58.275;5.0;-32.95373;-60.62417;35.0;36.1
20211011_180310.5;-0.636;-0.812;9.645;-0.008;-0.049;0.040;683.9;-23.213;30.469;-58.650;5.0;-32.95366;-60.62424;35.1;35.1
20211011_180311.0;-0.150;-0.642;9.906;0.011;-0.005;0.042;683.9;-24.188;34.125;-61.125;5.0;-32.95366;-60.62424;35.1;35.1
20211011_180311.5;-0.883;-0.719;9.346;-0.013;-0.002;0.044;683.9;-15.488;31.763;-55.575;5.0;-32.95360;-60.62430;35.2;34.3
20211011_180312.0;-0.135;-0.079;9.125;-0.007;-0.021;0.025;683.9;-19.050;30.244;-58.125;5.0;-32.95360;-60.62430;35.2;34.3
20211011_180312.5;-0.514;-0.391;9.607;-0.001;0.012;0.031;683.9;-17.025;25.481;-56.306;5.0;-32.95353;-60.62438;35.6;34.1
20211011_180313.0;-0.628;-0.455;9.580;0.030;-0.023;0.023;613.8;-17.700;33.694;-55.538;5.0;-32.95353;-60.62438;35.6;34.1
20211011_180313.5;-0.888;-0.635;9.123;-0.012;-0.012;0.029;613.8;-20.869;33.750;-57.319;5.0;-32.95347;-60.62445;35.5;35.2
20211011_180314.0;-0.576;-0.970;9.370;-0.017;0.010;0.029;682.1;-19.388;32.156;-58.594;5.0;-32.95347;-60.62445;35.5;35.2
20211011_180314.5;-0.272;-1.078;10.338;0.008;-0.013;0.028;682.1;-18.619;30.244;-58.913;5.0;-32.95341;-60.62453;36.1;35.1
20211011_180315.0;-0.174;-1.023;9.528;-0.011;0.007;0.019;682.1;-18.750;30.394;-57.975;5.0;-32.95341;-60.62453;36.1;35.1
20211011_180315.5;-0.176;-1.135;10.256;0.016;0.007;0.020;682.1;-18.788;31.181;-58.294;5.0;-32.95336;-60.62460;36.2;33.6
20211011_180316.0;-0.688;-0.985;9.525;0.015;0.008;0.016;682.1;-21.300;33.769;-58.856;5.0;-32.95336;-60.62460;36.2;33.6
20211011_180316.5;-0.233;-1.025;9.918;0.009;-0.011;0.022;682.1;-18.319;29.756;-60.469;5.0;-32.95330;-60.62468;36.4;32.3
20211011_180317.0;-0.329;-0.843;10.120;0.006;0.030;0.032;682.1;-12.806;28.875;-52.838;5.0;-32.95330;-60.62468;36.4;32.3
20211011_180317.5;-0.609;-0.618;9.468;-0.008;-0.013;0.014;682.1;-17.531;27.375;-58.931;5.0;-32.95326;-60.62475;36.3;31.1
20211011_180318.0;0.035;-0.829;10.350;0.015;0.003;0.016;607.7;-15.019;25.594;-56.513;5.0;-32.95326;-60.62475;36.3;31.1
20211011_180318.5;-0.444;-0.659;9.410;-0.002;-0.024;0.021;537.8;-16.950;32.100;-58.181;5.0;-32.95321;-60.62482;36.8;31.3
20211011_180319.0;-0.456;-0.345;10.054;0.008;0.003;0.017;537.8;-16.856;29.419;-58.181;5.0;-32.95321;-60.62482;36.8;31.3
20211011_180319.5;-0.435;-0.625;11.058;0.106;-0.028;-0.000;537.8;-18.338;30.544;-57.844;5.0;-32.95316;-60.62490;37.0;31.7
20211011_180320.0;-0.722;-0.827;10.160;-0.033;-0.017;0.018;537.8;-21.450;33.600;-60.263;5.0;-32.95316;-60.62490;37.0;31.7
20211011_180320.5;-0.221;-0.233;9.169;-0.033;0.033;0.018;607.7;-11.663;28.538;-52.556;5.0;-32.95312;-60.62497;37.7;32.5
20211011_180321.0;-0.327;-0.891;10.223;0.037;-0.001;0.041;683.1;-15.431;24.806;-58.369;5.0;-32.95312;-60.62497;37.7;32.5
20211011_180321.5;-0.815;-0.886;9.566;0.002;0.009;0.036;769.8;-17.194;26.419;-56.775;5.0;-32.95307;-60.62505;38.4;33.6
20211011_180322.0;-0.399;-0.709;9.573;-0.014;-0.016;0.032;769.8;-17.006;29.269;-56.475;5.0;-32.95307;-60.62505;38.4;33.6
20211011_180322.5;-0.384;-1.100;9.882;0.029;0.005;0.029;769.8;-19.200;25.519;-60.450;5.0;-32.95301;-60.62515;39.8;33.9
20211011_180323.0;-0.444;-0.563;9.741;-0.018;0.007;0.032;855.5;-18.600;24.863;-59.831;5.0;-32.95301;-60.62515;39.8;33.9
20211011_180323.5;-0.200;-0.405;9.954;-0.002;0.009;0.024;855.5;-19.931;26.306;-59.344;5.0;-32.95296;-60.62524;40.1;33.6
20211011_180324.0;-0.490;-0.475;10.189;0.018;-0.005;0.020;773.4;-16.931;26.888;-59.100;5.0;-32.95296;-60.62524;40.1;33.6
20211011_180324.5;-0.741;-0.707;10.047;-0.016;-0.028;0.024;773.4;-17.081;31.950;-58.031;5.0;-32.95294;-60.62530;40.5;32.3
20211011_180325.0;-0.497;-0.817;9.372;-0.013;0.019;0.031;773.4;-15.113;28.763;-57.600;5.0;-32.95294;-60.62530;40.5;32.3
20211011_180325.5;-0.468;-1.044;9.604;-0.008;-0.007;0.025;699.9;-18.375;32.138;-58.931;5.0;-32.95287;-60.62544;39.6;34.1
20211011_180326.0;-0.042;-1.028;9.559;0.004;0.029;0.033;699.9;-10.706;30.413;-55.688;5.0;-32.95287;-60.62544;39.6;34.1
20211011_180326.5;-0.324;-1.071;9.346;-0.016;-0.007;0.028;699.9;-10.669;28.838;-57.244;5.0;-32.95288;-60.62545;40.2;29.7
20211011_180327.0;-0.854;-2.523;9.736;0.003;-0.013;0.032;699.9;-14.194;26.531;-57.919;5.0;-32.95288;-60.62545;40.2;29.7
20211011_180327.5;-0.798;-2.576;9.604;-0.001;-0.015;0.019;699.9;-12.263;24.600;-58.275;5.0;-32.95283;-60.62558;39.0;29.2
20211011_180328.0;-0.181;-3.093;9.149;-0.009;-0.025;0.004;699.9;-13.838;28.894;-57.469;5.0;-32.95283;-60.62558;39.0;29.2
20211011_180328.5;-0.329;-2.949;9.221;-0.001;-0.018;0.008;699.9;-15.825;28.463;-58.819;5.0;-32.95281;-60.62565;38.9;22.2
20211011_180329.0;-0.435;-2.695;9.501;0.008;-0.016;-0.005;699.9;-14.325;26.381;-57.300;5.0;-32.95281;-60.62565;38.9;22.2
20211011_180329.5;-0.071;-3.030;9.425;0.011;0.016;-0.008;699.9;-12.750;26.194;-57.488;5.0;-32.95278;-60.62571;39.2;14.7
20211011_180330.0;0.006;-2.340;9.896;0.013;-0.016;0.000;699.9;-16.088;27.356;-58.200;5.0;-32.95278;-60.62571;39.2;14.7
20211011_180330.5;-0.102;-1.603;9.612;0.021;0.016;-0.003;699.9;-14.981;28.594;-60.544;5.0;-32.95277;-60.62574;39.1;7.0
20211011_180331.0;-0.317;-1.414;9.542;-0.006;0.015;0.004;699.9;-14.494;27.019;-58.688;5.0;-32.95277;-60.62574;39.1;7.0
20211011_180331.5;-0.147;-1.332;10.223;-0.009;0.011;0.005;699.9;-13.631;27.150;-56.850;5.0;-32.95277;-60.62575;38.9;2.4
20211011_180332.0;-0.241;-1.116;9.707;-0.008;0.015;0.006;699.9;-13.800;28.106;-57.469;5.0;-32.95277;-60.62575;38.9;2.4
20211011_180332.5;-0.243;-1.260;9.916;0.007;-0.006;-0.000;633.5;-12.788;27.300;-58.275;5.0;-32.95276;-60.62579;39.1;1.8
20211011_180333.0;-0.241;-1.270;9.573;-0.000;0.016;-0.001;633.5;-13.669;27.938;-58.106;5.0;-32.95276;-60.62579;39.1;1.8
20211011_180333.5;-0.200;-1.195;9.872;-0.003;0.000;-0.004;633.5;-14.381;27.638;-59.175;5.0;-32.95276;-60.62580;39.2;0.8
20211011_180334.0;-0.157;-1.258;9.604;-0.006;0.004;-0.000;633.5;-13.350;26.831;-59.663;5.0;-32.95276;-60.62580;39.2;0.8
20211011_180334.5;-0.269;-0.997;9.549;0.002;-0.001;-0.003;708.6;-13.613;26.363;-56.850;5.0;-32.95275;-60.62582;39.3;0.0
20211011_180335.0;-0.291;-1.001;9.750;-0.003;0.000;0.002;708.6;-14.381;27.956;-56.831;5.0;-32.95275;-60.62582;39.3;0.0
20211011_180335.5;-0.243;-0.956;9.681;0.001;-0.001;-0.000;787.6;-15.319;25.913;-56.663;5.0;-32.95274;-60.62584;39.2;0.8
20211011_180336.0;-0.255;-0.939;9.853;-0.000;-0.002;-0.003;787.6;-14.925;27.019;-57.450;5.0;-32.95275;-60.62582;39.3;2.0
20211011_180336.5;-0.207;-0.937;9.796;0.001;0.001;-0.000;787.6;-14.063;27.169;-58.088;5.0;-32.95275;-60.62582;39.3;2.0
20211011_180337.0;-0.245;-0.824;9.652;-0.000;-0.001;-0.000;787.6;-14.831;28.744;-56.831;5.0;-32.95273;-60.62586;39.7;0.8
20211011_180337.5;-0.260;-0.649;9.856;0.002;0.001;0.001;787.6;-15.131;29.231;-57.281;5.0;-32.95273;-60.62586;39.7;0.8
20211011_180338.0;-0.209;-0.700;9.600;0.001;0.001;-0.001;787.6;-15.750;25.613;-58.050;5.0;-32.95273;-60.62587;39.9;0.9
20211011_180338.5;-0.250;-0.772;9.894;-0.001;0.001;-0.000;787.6;-13.631;27.150;-58.406;5.0;-32.95273;-60.62587;39.9;0.9
20211011_180339.0;-0.214;-0.709;9.837;0.001;0.005;0.001;787.6;-13.350;26.831;-58.875;5.0;-32.95272;-60.62590;40.1;0.0
20211011_180339.5;-0.245;-0.690;9.623;-0.001;0.001;0.001;787.6;-14.213;27.000;-57.469;5.0;-32.95272;-60.62590;40.1;0.0
20211011_180340.0;-0.253;-0.738;9.844;-0.002;0.001;-0.001;787.6;-14.550;28.913;-57.450;5.0;-32.95272;-60.62588;40.6;0.0
20211011_180340.5;-0.217;-0.685;9.590;0.000;-0.001;-0.003;787.6;-13.688;28.725;-58.406;5.0;-32.95272;-60.62588;40.6;0.0
20211011_180341.0;-0.176;-0.724;9.724;-0.000;-0.002;0.000;787.6;-14.513;27.319;-58.706;5.0;-32.95271;-60.62590;39.0;0.6
20211011_180341.5;-0.147;-0.683;9.590;0.000;0.001;-0.000;787.6;-14.081;27.638;-56.531;5.0;-32.95271;-60.62590;39.0;0.6
20211011_180342.0;-0.241;-0.688;9.722;0.001;0.001;0.002;787.6;-13.088;28.088;-58.725;5.0;-32.95271;-60.62589;38.9;0.0
20211011_180342.5;-0.145;-0.709;9.633;0.000;0.001;0.002;787.6;-15.038;26.063;-57.600;5.0;-32.95271;-60.62589;38.9;0.0
20211011_180343.0;-0.260;-0.695;9.746;-0.001;-0.000;0.000;787.6;-15.113;28.444;-58.369;5.0;-32.95270;-60.62591;35.2;0.0
20211011_180343.5;-0.190;-0.760;9.841;-0.000;-0.001;-0.000;787.6;-15.506;27.656;-56.494;5.0;-32.95270;-60.62591;35.2;0.0
20211011_180344.0;-0.267;-0.685;9.750;0.001;-0.000;-0.001;787.6;-15.788;27.188;-59.138;5.0;-32.95270;-60.62592;35.1;0.0
20211011_180344.5;-0.209;-0.772;9.892;0.001;-0.000;-0.000;787.6;-15.075;27.188;-58.838;5.0;-32.95270;-60.62592;35.1;0.0
20211011_180345.0;-0.281;-0.760;9.839;0.000;-0.001;-0.001;787.6;-14.231;27.788;-59.475;5.0;-32.95270;-60.62593;35.0;0.0
20211011_180345.5;-0.164;-0.709;9.643;0.000;-0.003;-0.002;787.6;-14.944;27.806;-57.919;5.0;-32.95270;-60.62593;35.0;0.0
20211011_180346.0;-0.181;-0.776;9.822;-0.001;-0.001;0.000;787.6;-15.731;25.294;-57.263;5.0;-32.95270;-60.62592;34.7;0.0
20211011_180346.5;-0.257;-0.750;9.882;-0.000;0.002;0.001;713.8;-14.081;27.638;-57.619;5.0;-32.95270;-60.62592;34.7;0.0
20211011_180347.0;-0.277;-0.695;9.765;-0.000;0.002;0.001;713.8;-14.213;27.000;-59.006;5.0;-32.95271;-60.62591;34.6;0.0
20211011_180347.5;-0.255;-0.678;9.674;-0.001;-0.001;-0.000;713.8;-14.794;27.169;-59.925;5.0;-32.95271;-60.62591;34.6;0.0
20211011_180348.0;-0.169;-0.693;9.609;0.001;-0.001;-0.001;713.8;-14.175;26.213;-58.238;5.0;-32.95271;-60.62591;34.5;0.0
20211011_180348.5;-0.166;-0.721;9.650;0.001;-0.001;-0.001;713.8;-14.288;29.381;-58.238;5.0;-32.95271;-60.62591;34.5;0.0
20211011_180349.0;-0.162;-0.721;9.626;0.001;-0.002;-0.000;713.8;-14.831;28.744;-56.831;5.0;-32.95271;-60.62591;34.5;0.0
20211011_180349.5;-0.214;-0.690;9.583;-0.000;0.000;-0.002;713.8;-14.794;27.656;-58.388;5.0;-32.95271;-60.62591;34.5;0.0
20211011_180350.0;-0.243;-0.714;9.822;0.000;-0.003;-0.001;713.8;-14.213;27.319;-58.706;5.0;-32.95271;-60.62591;34.5;0.0
20211011_180351.0;-0.217;-0.659;9.578;-0.001;0.001;0.001;713.8;-14.194;26.531;-56.681;5.0;-32.95271;-60.62591;34.5;0.0
20211011_180351.5;-0.253;-0.664;9.631;-0.000;-0.000;-0.000;713.8;-14.325;26.063;-56.831;5.0;-32.95271;-60.62592;34.5;0.0
20211011_180352.0;-0.164;-0.740;9.731;-0.000;-0.001;-0.000;713.8;-12.769;26.981;-57.488;5.0;-32.95271;-60.62592;34.5;0.0
20211011_180352.5;-0.190;-0.774;9.805;0.001;-0.000;-0.001;713.8;-13.819;28.575;-58.256;5.0;-32.95271;-60.62593;34.6;0.0
20211011_180353.0;-0.272;-0.702;9.669;0.001;0.002;0.001;713.8;-15.113;28.763;-58.369;5.0;-32.95271;-60.62593;34.6;0.0
20211011_180353.5;-0.250;-0.702;9.655;-0.001;0.000;0.000;713.8;-14.194;26.531;-57.919;5.0;-32.95270;-60.62593;34.7;0.0
20211011_180354.0;-0.250;-0.752;9.935;0.000;0.002;-0.000;713.8;-13.388;28.406;-57.638;5.0;-32.95270;-60.62593;34.7;0.0
20211011_180354.5;-0.241;-0.704;9.786;-0.000;0.002;0.002;713.8;-13.369;27.938;-57.319;5.0;-32.95270;-60.62594;35.0;0.0
20211011_180355.0;-0.195;-0.743;9.722;0.002;0.000;-0.002;713.8;-14.138;29.213;-58.088;5.0;-32.95270;-60.62594;35.0;0.0
20211011_180355.5;-0.190;-0.774;9.822;-0.000;-0.001;-0.001;713.8;-14.981;28.594;-58.688;5.0;-32.95270;-60.62594;35.0;0.0
20211011_180356.0;-0.183;-0.676;9.592;0.001;0.002;0.000;713.8;-14.475;26.531;-57.919;5.0;-32.95270;-60.62594;35.0;0.0
20211011_180356.5;-0.171;-0.750;9.724;-0.000;-0.003;-0.001;713.8;-14.063;26.850;-57.619;5.0;-32.95270;-60.62594;35.0;0.0
20211011_180357.0;-0.236;-0.697;9.734;0.001;-0.000;-0.000;713.8;-15.375;27.806;-58.669;5.0;-32.95270;-60.62594;35.0;0.0
20211011_180357.5;-0.269;-0.748;9.844;-0.000;0.000;0.000;713.8;-12.188;26.813;-56.569;5.0;-32.95270;-60.62594;35.0;0.0
20211011_180358.0;-0.193;-0.762;9.808;0.001;-0.002;0.001;713.8;-16.144;29.719;-57.413;5.0;-32.95270;-60.62594;35.0;0.0
20211011_180358.5;-0.260;-0.760;9.880;0.000;-0.002;-0.002;713.8;-15.506;27.656;-56.813;5.0;-32.95270;-60.62594;35.0;0.0
20211011_180359.0;-0.260;-0.736;9.868;-0.000;0.000;0.000;713.8;-16.069;27.038;-57.113;5.0;-32.95270;-60.62594;35.0;0.0
20211011_180359.5;-0.217;-0.671;9.595;-0.000;0.000;0.000;713.8;-15.638;26.550;-59.438;5.0;-32.95270;-60.62594;35.0;0.0
20211011_180400.0;-0.265;-0.745;9.889;0.001;0.001;0.000;713.8;-15.338;26.231;-57.900;5.0;-32.95270;-60.62594;35.0;0.0
20211011_180400.5;-0.260;-0.714;9.770;-0.000;0.002;0.000;713.8;-14.400;28.425;-59.175;5.0;-32.95270;-60.62595;35.0;0.0
20211011_180401.0;-0.159;-0.695;9.633;0.001;-0.001;-0.001;713.8;-15.113;28.444;-59.625;5.0;-32.95270;-60.62595;35.0;0.0
20211011_180401.5;-0.157;-0.704;9.681;0.000;-0.003;-0.002;713.8;-13.781;27.000;-59.494;5.0;-32.95270;-60.62595;34.9;0.0
20211011_180402.0;-0.164;-0.750;9.753;0.000;-0.000;-0.000;713.8;-15.525;27.656;-58.838;5.0;-32.95270;-60.62595;34.9;0.0
20211011_180402.5;-0.176;-0.745;9.758;0.000;-0.000;-0.000;713.8;-15.019;25.594;-58.069;5.0;-32.95270;-60.62596;34.9;0.0
20211011_180403.0;-0.253;-0.688;9.722;-0.001;0.002;0.001;713.8;-14.081;27.638;-58.406;5.0;-32.95270;-60.62596;34.9;0.0
20211011_180403.5;-0.202;-0.678;9.576;0.000;-0.000;-0.001;713.8;-15.675;27.825;-58.200;5.0;-32.95270;-60.62596;34.9;0.0
20211011_180404.0;-0.262;-0.728;9.875;0.001;-0.001;-0.000;713.8;-14.100;27.956;-58.856;5.0;-32.95270;-60.62596;34.9;0.0
20211011_180404.5;-0.150;-0.702;9.645;-0.000;-0.001;-0.000;713.8;-14.400;28.425;-58.856;5.0;-32.95270;-60.62596;34.9;0.0
20211011_180405.0;-0.241;-0.681;9.688;0.000;0.002;0.001;713.8;-16.256;27.994;-58.350;5.0;-32.95270;-60.62596;34.9;0.0
20211011_180405.5;-0.289;-0.781;9.889;-0.001;0.003;0.002;713.8;-13.781;27.319;-58.256;5.0;-32.95270;-60.62596;34.9;0.0
20211011_180406.0;-0.236;-0.702;9.698;0.002;-0.001;-0.001;713.8;-15.131;28.763;-58.838;5.0;-32.95270;-60.62596;34.9;0.0
20211011_180406.5;-0.200;-0.664;9.590;0.000;0.000;-0.001;713.8;-15.394;28.125;-58.988;5.0;-32.95270;-60.62596;34.9;0.0
20211011_180407.0;-0.190;-0.719;9.798;-0.000;-0.001;-0.000;713.8;-14.175;25.894;-58.706;5.0;-32.95270;-60.62596;34.9;0.0
20211011_180407.5;-0.214;-0.738;9.765;0.000;-0.001;-0.001;802.2;-15.638;27.038;-57.431;5.0;-32.95270;-60.62596;34.9;0.0
20211011_180408.0;-0.178;-0.743;9.748;0.001;0.002;0.002;900.3;-14.925;27.019;-57.131;5.0;-32.95270;-60.62596;34.9;0.0
20211011_180408.5;-0.202;-0.697;9.657;-0.001;-0.004;-0.004;900.3;-15.544;28.444;-58.050;5.0;-32.95270;-60.62596;34.9;0.0
20211011_180409.0;-0.217;-0.755;9.841;0.000;0.002;0.001;900.3;-15.525;27.975;-59.138;5.0;-32.95270;-60.62596;34.9;0.0
20211011_180409.5;-0.229;-0.712;9.667;0.000;0.001;0.001;900.3;-15.131;29.231;-57.600;5.0;-32.95270;-60.62596;34.9;0.0
20211011_180410.0;-0.202;-0.774;9.772;-0.000;-0.002;-0.001;900.3;-15.431;29.400;-58.688;5.0;-32.95270;-60.62596;34.9;0.0
20211011_180410.5;-0.212;-0.673;9.621;0.001;-0.000;-0.000;900.3;-14.081;27.169;-59.944;5.0;-32.95270;-60.62596;34.9;0.0
20211011_180411.0;-0.133;-0.671;9.559;0.001;0.006;0.003;900.3;-16.275;29.250;-56.494;5.0;-32.95270;-60.62596;34.9;0.0
20211011_180411.5;-0.217;-0.661;9.588;0.001;-0.001;-0.001;900.3;-13.669;28.425;-58.875;5.0;-32.95270;-60.62596;34.9;0.0
20211011_180412.0;-0.219;-0.757;9.884;-0.000;0.002;0.001;900.3;-16.125;28.613;-59.438;5.0;-32.95270;-60.62596;34.9;0.0
20211011_180412.5;-0.198;-0.815;9.940;0.000;-0.001;-0.001;900.3;-16.538;27.994;-58.331;5.0;-32.95270;-60.62596;34.9;0.0
20211011_180413.0;-0.200;-0.800;9.904;-0.001;-0.002;0.000;900.3;-14.063;27.169;-58.088;5.0;-32.95270;-60.62596;34.9;0.0
20211011_180413.5;-0.198;-0.772;9.892;-0.000;0.002;0.000;817.9;-14.250;28.106;-59.006;5.0;-32.95270;-60.62596;34.9;0.0
20211011_180414.0;-0.238;-0.772;9.889;-0.000;-0.001;-0.001;817.9;-13.838;29.363;-57.469;5.0;-32.95270;-60.62596;34.9;0.0
20211011_180414.5;-0.183;-0.678;9.595;0.001;0.002;0.000;817.9;-16.106;28.144;-58.200;5.0;-32.95270;-60.62596;34.9;0.5
20211011_180415.0;-0.195;-0.748;9.805;-0.001;-0.003;-0.001;817.9;-14.231;27.788;-59.006;5.0;-32.95270;-60.62596;34.9;0.5
20211011_180415.5;-0.200;-0.724;9.729;0.001;0.001;0.000;817.9;-14.513;27.806;-58.706;5.0;-32.95269;-60.62598;35.1;0.9
20211011_180416.0;-0.265;-0.784;9.918;-0.001;-0.000;-0.000;817.9;-15.544;28.444;-59.606;5.0;-32.95269;-60.62598;35.1;0.9
20211011_180416.5;-0.188;-0.719;9.679;-0.001;0.001;0.001;817.9;-14.775;26.850;-57.600;5.0;-32.95270;-60.62597;35.4;0.0
20211011_180417.0;-0.186;-0.681;9.628;-0.001;0.001;0.001;817.9;-14.906;26.550;-56.663;5.0;-32.95270;-60.62597;35.4;0.0
20211011_180417.5;-0.205;-0.762;9.951;0.001;0.002;-0.000;817.9;-15.413;28.913;-58.988;5.0;-32.95270;-60.62597;35.4;0.0
20211011_180418.0;-0.243;-0.767;9.861;0.000;0.002;0.003;817.9;-14.756;26.063;-57.600;5.0;-32.95270;-60.62597;35.4;0.0
20211011_180418.5;-0.274;-0.719;9.664;0.001;0.003;0.001;817.9;-15.506;27.656;-56.813;5.0;-32.95270;-60.62597;35.4;0.0
20211011_180419.0;-0.169;-0.738;9.679;0.001;0.000;0.000;736.0;-15.413;28.613;-58.219;5.0;-32.95270;-60.62597;35.4;0.0
20211011_180419.5;-0.209;-0.702;9.765;0.001;0.002;0.001;736.0;-14.944;27.338;-58.219;5.0;-32.95270;-60.62597;35.4;0.0
20211011_180420.0;-0.214;-0.666;9.679;0.000;-0.001;-0.001;736.0;-14.513;27.806;-57.919;5.0;-32.95270;-60.62597;35.4;0.0
20211011_180420.5;-0.253;-0.721;9.645;0.001;0.001;-0.000;736.0;-13.519;28.106;-58.256;5.0;-32.95270;-60.62597;35.4;0.0
20211011_180421.0;-0.190;-0.661;9.628;0.002;-0.001;0.000;736.0;-14.981;28.594;-58.219;5.0;-32.95270;-60.62597;35.4;0.0
20211011_180421.5;-0.162;-0.664;9.612;-0.000;-0.001;-0.001;818.6;-15.806;27.975;-57.581;5.0;-32.95270;-60.62597;35.4;0.0
20211011_180422.0;-0.166;-0.669;9.609;0.000;-0.002;0.001;818.6;-13.781;27.000;-59.025;5.0;-32.95270;-60.62597;35.4;0.0
20211011_180422.5;-0.219;-0.580;9.803;0.002;0.001;0.001;818.6;-15.544;28.763;-58.050;5.0;-32.95270;-60.62597;35.4;0.0
20211011_180423.0;-0.202;-0.633;9.892;0.002;0.001;0.000;818.6;-13.669;28.425;-58.406;5.0;-32.95270;-60.62598;35.4;0.0
20211011_180423.5;-0.188;0.412;9.906;0.000;-0.004;0.003;818.6;-14.231;27.788;-59.006;5.0;-32.95270;-60.62598;35.4;0.0
20211011_180424.0;-0.245;0.821;9.717;0.008;-0.006;0.010;818.6;-14.100;27.956;-59.644;5.0;-32.95270;-60.62599;35.5;2.8
20211011_180424.5;-0.193;0.500;9.750;0.002;-0.006;0.017;818.6;-14.381;27.638;-59.175;5.0;-32.95270;-60.62599;35.5;2.8
20211011_180425.0;-0.296;0.517;9.894;-0.002;-0.009;0.014;818.6;-14.400;28.744;-58.856;5.0;-32.95269;-60.62601;35.6;7.1
20211011_180425.5;-0.212;0.771;9.846;-0.008;0.010;0.020;818.6;-14.213;27.000;-57.150;5.0;-32.95269;-60.62601;35.6;7.1
20211011_180426.0;-0.013;0.189;9.612;-0.010;-0.011;0.004;818.6;-13.781;27.319;-57.469;5.0;-32.95268;-60.62604;35.2;11.6
20211011_180426.5;0.200;-0.817;9.703;-0.004;-0.011;0.005;742.4;-13.369;27.619;-57.638;5.0;-32.95268;-60.62604;35.2;11.6
20211011_180427.0;0.004;0.536;9.973;0.005;-0.000;-0.001;742.4;-14.775;26.850;-56.831;5.0;-32.95267;-60.62608;35.2;13.1
20211011_180427.5;0.011;0.038;9.621;-0.021;0.008;-0.012;672.8;-14.231;27.788;-57.469;5.0;-32.95267;-60.62608;35.2;13.1
20211011_180428.0;-0.109;0.043;9.609;-0.009;0.016;-0.012;672.8;-14.888;25.913;-58.219;5.0;-32.95265;-60.62613;35.3;15.2
20211011_180428.5;-0.159;-0.214;9.940;-0.014;-0.000;-0.019;672.8;-14.981;28.594;-57.919;5.0;-32.95265;-60.62613;35.3;15.2
20211011_180429.0;-0.140;-0.599;9.841;0.005;-0.004;-0.019;609.1;-15.563;29.231;-57.581;5.0;-32.95263;-60.62619;35.4;17.5
20211011_180429.5;0.186;0.096;9.872;0.025;0.006;-0.026;609.1;-16.406;28.613;-57.094;5.0;-32.95263;-60.62619;35.4;17.5
20211011_180430.0;0.174;0.388;9.212;-0.006;0.009;-0.019;544.6;-15.825;28.463;-57.581;5.0;-32.95261;-60.62624;35.9;19.0
20211011_180431.0;-0.095;0.084;10.172;-0.011;-0.002;-0.012;494.1;-16.950;27.206;-58.331;5.0;-32.95261;-60.62624;35.9;19.0
20211011_180431.5;-0.478;-0.038;10.225;-0.004;-0.003;-0.011;494.1;-14.944;27.338;-58.688;5.0;-32.95258;-60.62627;36.1;22.1
20211011_180432.0;-0.253;-1.059;9.128;-0.017;0.005;-0.011;447.7;-16.500;26.888;-57.244;5.0;-32.95258;-60.62627;36.1;22.1
20211011_180432.5;-0.207;-0.067;10.517;0.028;-0.002;-0.013;447.7;-15.825;28.463;-58.350;5.0;-32.95256;-60.62633;35.8;22.5
20211011_180433.0;0.279;-0.168;9.331;-0.035;0.014;-0.020;447.7;-16.406;28.931;-56.644;5.0;-32.95256;-60.62633;35.8;22.5
20211011_180433.5;-0.353;-0.439;10.589;0.003;0.029;-0.015;447.7;-16.988;28.781;-58.331;5.0;-32.95253;-60.62639;35.5;22.6
20211011_180434.0;-0.502;-0.286;9.798;0.010;-0.014;-0.016;501.0;-16.875;29.419;-58.950;5.0;-32.95253;-60.62639;35.5;22.6
20211011_180434.5;-0.602;-0.160;9.473;-0.009;0.002;-0.020;501.0;-17.700;28.800;-57.225;5.0;-32.95253;-60.62645;36.5;23.0
20211011_180435.0;-0.310;-0.309;10.115;0.001;0.006;-0.011;561.2;-17.606;30.225;-57.075;5.0;-32.95253;-60.62645;36.5;23.0
20211011_180435.5;0.102;0.254;9.516;-0.011;0.022;-0.049;561.2;-17.175;30.525;-57.094;5.0;-32.95249;-60.62651;37.0;24.7
20211011_180436.0;-0.257;-0.388;9.889;0.001;0.013;-0.042;561.2;-17.700;28.481;-56.456;5.0;-32.95249;-60.62651;37.0;24.7
20211011_180436.5;0.320;-0.755;9.743;-0.005;0.005;-0.050;561.2;-16.744;25.931;-52.744;5.0;-32.95244;-60.62659;36.5;27.2
20211011_180437.0;-0.063;-0.803;9.691;0.000;0.001;-0.042;561.2;-17.606;30.225;-57.075;5.0;-32.95244;-60.62659;36.5;27.2
20211011_180437.5;-0.207;-1.011;9.738;-0.004;-0.017;-0.032;561.2;-20.175;29.944;-56.400;5.0;-32.95241;-60.62666;35.4;26.8
20211011_180438.0;-0.516;-0.805;9.456;-0.006;0.009;-0.028;561.2;-18.450;29.606;-57.525;5.0;-32.95241;-60.62666;35.4;26.8
20211011_180438.5;-0.576;-1.052;9.734;-0.014;-0.002;-0.026;508.4;-19.481;30.731;-55.950;5.0;-32.95237;-60.62673;36.3;25.8
20211011_180439.0;0.202;-0.851;10.385;-0.005;0.029;-0.015;508.4;-19.050;30.563;-57.825;5.0;-32.95237;-60.62673;36.3;25.8
20211011_180439.5;-0.241;-0.592;9.396;0.036;0.036;-0.016;508.4;-19.350;31.050;-57.356;5.0;-32.95234;-60.62680;35.7;25.6
20211011_180440.0;-0.497;-0.472;9.205;0.012;-0.009;-0.027;508.4;-19.969;32.325;-58.725;5.0;-32.95234;-60.62680;35.7;25.6
20211011_180440.5;0.016;-0.295;9.487;-0.011;-0.008;-0.048;508.4;-19.763;30.581;-56.250;5.0;-32.95227;-60.62685;33.5;26.0
20211011_180441.0;-0.236;-0.393;9.928;0.007;0.013;-0.047;508.4;-20.231;31.538;-56.700;5.0;-32.95227;-60.62685;33.5;26.0
20211011_180441.5;-0.008;-0.748;9.676;-0.004;0.001;-0.066;508.4;-21.131;33.131;-56.381;5.0;-32.95223;-60.62691;34.3;26.3
20211011_180442.0;0.248;-0.795;9.465;0.009;0.015;-0.065;568.8;-20.531;32.175;-58.556;5.0;-32.95223;-60.62691;34.3;26.3
20211011_180442.5;-0.087;-0.484;9.561;0.035;0.012;-0.061;568.8;-22.650;31.088;-56.175;5.0;-32.95219;-60.62698;34.6;26.5
20211011_180443.0;-0.272;-0.640;9.607;-0.006;-0.036;-0.035;568.8;-20.681;32.325;-58.256;5.0;-32.95219;-60.62698;34.6;26.5
20211011_180443.5;-0.396;-0.297;9.307;0.005;0.008;-0.038;568.8;-21.300;34.069;-56.531;5.0;-32.95214;-60.62705;33.1;26.8
20211011_180444.0;0.164;-0.525;10.031;-0.001;0.002;-0.043;568.8;-21.375;31.556;-55.913;5.0;-32.95214;-60.62705;33.1;26.8
20211011_180444.5;-0.260;-0.499;9.475;0.018;-0.020;-0.046;568.8;-21.544;32.494;-56.213;5.0;-32.95207;-60.62713;34.6;29.4
20211011_180445.0;0.035;-0.410;9.458;-0.010;-0.030;-0.035;568.8;-20.831;32.494;-55.763;5.0;-32.95207;-60.62713;34.6;29.4
20211011_180445.5;0.195;-0.307;9.722;0.017;-0.003;-0.040;568.8;-21.431;33.600;-55.594;5.0;-32.95201;-60.62720;34.8;29.8
20211011_180446.0;-0.133;-0.029;10.090;-0.001;0.003;-0.036;568.8;-23.325;34.425;-56.644;5.0;-32.95201;-60.62720;34.8;29.8
20211011_180446.5;0.241;-0.357;9.825;-0.002;-0.020;-0.019;568.8;-23.325;34.425;-55.556;5.0;-32.95196;-60.62727;36.4;31.8
20211011_180447.0;0.236;-0.736;9.868;0.026;-0.015;-0.040;568.8;-24.300;33.656;-55.838;5.0;-32.95196;-60.62727;36.4;31.8
20211011_180447.5;0.147;-0.963;10.115;-0.018;0.028;-0.040;568.8;-21.600;34.088;-56.531;5.0;-32.95189;-60.62733;36.3;33.6
20211011_180448.0;0.311;-0.702;9.300;-0.016;-0.010;-0.069;568.8;-23.250;32.063;-57.413;5.0;-32.95189;-60.62733;36.3;33.6
20211011_180448.5;0.214;-0.968;10.035;0.010;0.010;-0.059;568.8;-25.031;33.975;-56.606;5.0;-32.95182;-60.62739;36.3;33.7
20211011_180449.0;0.469;-0.594;9.880;-0.002;-0.013;-0.072;568.8;-24.450;33.806;-56.156;5.0;-32.95182;-60.62739;36.3;33.7
20211011_180449.5;0.744;-0.637;10.095;0.006;0.002;-0.072;568.8;-25.050;34.763;-57.075;5.0;-32.95174;-60.62744;36.7;34.1
20211011_180450.0;0.121;-0.556;9.726;0.000;0.017;-0.057;568.8;-25.238;36.188;-56.138;5.0;-32.95174;-60.62744;36.7;34.1
20211011_180450.5;0.335;-0.805;10.011;-0.007;0.025;-0.057;568.8;-26.925;34.800;-55.163;5.0;-32.95167;-60.62748;37.8;34.7
20211011_180451.0;0.406;-0.736;9.370;-0.001;0.011;-0.049;568.8;-27.956;35.606;-57.000;5.0;-32.95167;-60.62748;37.8;34.7
20211011_180451.5;-0.322;-0.807;9.482;-0.019;-0.031;-0.011;507.3;-26.513;35.588;-55.800;5.0;-32.95159;-60.62752;38.4;35.0
20211011_180452.0;0.145;-1.171;9.736;0.003;-0.020;-0.017;507.3;-28.388;35.625;-55.744;5.0;-32.95159;-60.62752;38.4;35.0
20211011_180452.5;-0.205;-0.999;9.607;0.010;-0.001;-0.016;507.3;-27.188;34.013;-55.781;5.0;-32.95150;-60.62756;37.6;35.1
20211011_180453.0;0.442;-0.973;9.985;-0.015;0.020;-0.013;507.3;-26.794;34.950;-56.400;5.0;-32.95150;-60.62756;37.6;35.1
20211011_180453.5;-0.514;-1.059;10.019;-0.004;0.029;-0.016;507.3;-28.256;36.244;-56.063;5.0;-32.95143;-60.62759;38.5;34.0
20211011_180454.0;0.023;-0.841;9.607;-0.002;-0.015;-0.029;507.3;-27.788;34.650;-56.850;5.0;-32.95143;-60.62759;38.5;34.0
20211011_180454.5;-0.164;-0.927;9.626;-0.003;0.007;-0.004;566.1;-27.956;35.606;-55.444;5.0;-32.95135;-60.62763;39.5;33.6
20211011_180455.0;0.071;-0.652;9.899;0.003;0.015;-0.014;566.1;-28.631;34.519;-57.300;5.0;-32.95135;-60.62763;39.5;33.6
20211011_180455.5;-0.164;-0.115;9.420;0.013;0.000;0.011;566.1;-26.794;35.438;-57.188;5.0;-32.95126;-60.62767;38.6;33.2
20211011_180456.0;-0.715;-0.434;10.330;-0.012;-0.002;-0.001;566.1;-27.488;34.650;-56.081;5.0;-32.95117;-60.62770;36.9;35.0
20211011_180456.5;-0.253;-0.772;10.045;-0.003;0.002;0.000;566.1;-28.238;35.456;-56.381;5.0;-32.95117;-60.62770;36.9;35.0
20211011_180457.0;-0.054;-0.906;9.544;-0.001;0.015;-0.017;566.1;-28.688;36.413;-57.300;5.0;-32.95109;-60.62774;36.9;36.1
20211011_180457.5;-0.260;-1.193;9.832;0.024;-0.006;-0.005;566.1;-27.956;35.288;-57.769;5.0;-32.95109;-60.62774;36.9;36.1
20211011_180458.0;-0.020;-0.963;9.638;-0.001;0.004;-0.001;566.1;-27.263;36.694;-55.463;5.0;-32.95100;-60.62776;37.0;35.4
20211011_180458.5;-0.293;-1.097;9.887;-0.013;-0.006;0.001;566.1;-28.556;36.244;-57.600;5.0;-32.95100;-60.62776;37.0;35.4
20211011_180459.0;-0.430;-0.836;9.037;-0.011;-0.029;0.004;566.1;-27.938;35.288;-56.531;5.0;-32.95092;-60.62779;36.5;34.2
20211011_180459.5;-0.109;-1.059;9.717;0.001;0.002;0.003;566.1;-28.219;34.988;-56.363;5.0;-32.95092;-60.62779;36.5;34.2
20211011_180500.0;-0.205;-1.085;10.153;0.008;-0.003;0.001;566.1;-27.206;34.800;-55.463;5.0;-32.95084;-60.62782;36.7;33.0
20211011_180500.5;-0.260;-1.205;9.571;0.014;0.007;0.005;566.1;-29.250;35.475;-56.813;5.0;-32.95084;-60.62782;36.7;33.0
20211011_180501.0;-0.150;-0.750;10.156;-0.006;-0.012;-0.005;566.1;-27.638;34.500;-55.444;5.0;-32.95076;-60.62785;36.7;32.3
20211011_180502.0;-0.360;-0.855;9.346;0.008;-0.002;-0.008;566.1;-28.350;34.819;-55.444;5.0;-32.95076;-60.62785;36.7;32.3
20211011_180502.5;-0.329;-0.781;9.389;0.011;-0.011;-0.003;566.1;-28.669;35.625;-58.069;5.0;-32.95069;-60.62787;37.2;31.4
20211011_180503.0;-0.444;-0.807;9.640;0.017;0.002;-0.005;636.4;-28.631;34.519;-57.300;5.0;-32.95069;-60.62787;37.2;31.4
20211011_180503.5;-0.334;-0.745;9.250;-0.028;0.009;-0.018;636.4;-26.775;34.650;-57.188;5.0;-32.95062;-60.62790;36.3;31.0
20211011_180504.0;-0.549;-0.922;9.861;-0.009;0.013;-0.007;636.4;-30.431;37.069;-56.006;5.0;-32.95062;-60.62790;36.3;31.0
20211011_180504.5;-0.226;-0.965;9.856;-0.005;-0.001;0.003;636.4;-28.931;34.688;-57.131;5.0;-32.95054;-60.62793;36.0;30.2
20211011_180505.0;-0.317;-0.669;9.755;-0.007;0.011;0.001;636.4;-26.494;34.800;-57.038;5.0;-32.95054;-60.62793;36.0;30.2
20211011_180505.5;-0.578;-0.645;10.297;0.014;-0.003;-0.001;636.4;-27.769;34.181;-57.150;5.0;-32.95047;-60.62795;35.7;29.2
20211011_180506.0;-0.703;-0.317;10.038;0.070;-0.016;0.005;636.4;-27.544;36.244;-57.638;5.0;-32.95047;-60.62795;35.7;29.2
20211011_180506.5;-0.533;-0.453;9.870;-0.017;-0.009;0.001;636.4;-28.388;35.625;-56.213;5.0;-32.95040;-60.62798;35.6;30.0
20211011_180507.0;-0.327;-0.772;9.722;-0.028;0.008;0.006;572.4;-27.956;35.606;-56.231;5.0;-32.95040;-60.62798;35.6;30.0
20211011_180507.5;-0.274;-0.642;9.379;-0.004;0.001;0.009;572.4;-30.619;38.344;-56.475;5.0;-32.95033;-60.62800;35.7;30.5
20211011_180508.0;-0.540;-0.772;9.889;-0.006;0.001;-0.007;572.4;-30.694;36.281;-56.775;5.0;-32.95033;-60.62800;35.7;30.5
20211011_180508.5;-0.439;-0.874;9.523;0.007;0.011;0.001;572.4;-29.663;35.006;-56.813;5.0;-32.95026;-60.62803;36.1;30.1
20211011_180509.0;-0.444;-1.042;9.691;0.004;0.013;0.006;572.4;-30.413;36.600;-56.006;5.0;-32.95026;-60.62803;36.1;30.1
20211011_180509.5;-0.389;-1.100;9.607;0.005;-0.006;-0.011;572.4;-28.350;34.519;-56.981;5.0;-32.95019;-60.62805;35.8;29.7
20211011_180510.0;-0.332;-1.214;9.951;-0.015;0.001;-0.012;572.4;-28.406;36.731;-55.444;5.0;-32.95019;-60.62805;35.8;29.7
20211011_180510.5;-0.772;-0.657;9.413;-0.002;0.020;-0.004;572.4;-28.931;34.669;-55.575;5.0;-32.95012;-60.62807;34.2;28.2
20211011_180511.0;-0.530;-0.927;9.578;0.030;0.016;-0.007;572.4;-29.081;34.838;-55.106;5.0;-32.95012;-60.62807;34.2;28.2
20211011_180511.5;-0.365;-1.025;9.679;0.004;-0.013;-0.030;572.4;-28.219;34.988;-56.831;5.0;-32.95007;-60.62809;32.5;27.1
20211011_180512.0;-0.245;-0.889;9.863;0.007;-0.014;-0.023;572.4;-29.400;35.644;-57.750;5.0;-32.95007;-60.62809;32.5;27.1
20211011_180512.5;-0.600;-0.642;9.999;-0.001;0.005;-0.016;572.4;-29.813;35.325;-57.731;5.0;-32.95001;-60.62810;32.4;25.8
20211011_180513.0;-0.482;-0.546;9.518;0.002;-0.021;-0.021;572.4;-31.538;35.663;-55.369;5.0;-32.95001;-60.62810;32.4;25.8
20211011_180513.5;-0.040;-0.867;9.999;0.011;0.019;-0.009;572.4;-31.088;35.025;-55.988;5.0;-32.94994;-60.62812;32.7;26.4
20211011_180514.0;-0.121;-0.949;10.040;0.028;0.013;-0.011;519.1;-33.244;35.063;-55.950;5.0;-32.94994;-60.62812;32.7;26.4
20211011_180514.5;-0.833;-1.021;9.360;0.005;0.007;0.015;519.1;-29.250;35.794;-55.575;5.0;-32.94988;-60.62813;32.9;25.9
20211011_180515.0;-0.772;-1.054;9.492;-0.010;-0.014;0.035;519.1;-30.394;35.494;-58.331;5.0;-32.94988;-60.62813;32.9;25.9
20211011_180515.5;-0.516;-0.807;9.427;0.002;-0.006;0.054;519.1;-29.438;37.219;-57.281;5.0;-32.94982;-60.62814;33.2;24.8
20211011_180516.0;-0.605;-0.103;9.729;-0.006;-0.012;0.055;519.1;-28.931;34.669;-55.275;5.0;-32.94982;-60.62814;33.2;24.8
20211011_180516.5;-0.722;-0.470;9.530;0.006;0.001;0.059;519.1;-28.538;36.244;-56.063;5.0;-32.94975;-60.62816;33.2;24.6
20211011_180517.0;-1.046;-0.767;9.394;-0.026;-0.017;0.049;519.1;-28.425;37.519;-54.356;5.0;-32.94975;-60.62816;33.2;24.6
20211011_180517.5;-0.734;-0.839;9.784;0.021;-0.013;0.042;519.1;-28.969;36.263;-55.575;5.0;-32.94969;-60.62819;34.5;25.4
20211011_180518.0;-1.067;-0.894;9.841;-0.017;0.013;0.039;519.1;-28.988;36.581;-56.363;5.0;-32.94969;-60.62819;34.5;25.4
20211011_180518.5;-0.763;-0.867;9.506;-0.005;-0.016;0.053;519.1;-38.775;37.219;-56.906;5.0;-32.94962;-60.62822;33.6;25.0
20211011_180519.0;-1.034;-0.523;9.406;-0.042;-0.041;0.054;519.1;-42.806;23.700;-56.625;5.0;-32.94962;-60.62822;33.6;25.0
20211011_180519.5;-0.384;-0.788;9.731;-0.001;0.011;0.061;519.1;-33.450;36.806;-57.188;5.0;-32.94955;-60.62825;33.9;25.2
20211011_180520.0;-0.854;-0.489;9.935;0.017;-0.018;0.069;578.8;-40.425;38.981;-63.694;5.0;-32.94955;-60.62825;33.9;25.2
20211011_180520.5;-0.736;-0.266;10.088;-0.019;-0.013;0.034;647.5;-37.388;34.200;-58.631;5.0;-32.94949;-60.62829;32.0;26.0
20211011_180521.0;-0.396;-0.388;10.064;0.017;-0.036;0.001;647.5;-27.075;34.969;-55.631;5.0;-32.94949;-60.62829;32.0;26.0
20211011_180521.5;-0.004;-0.513;9.674;0.005;-0.016;-0.027;647.5;-26.194;34.481;-57.038;5.0;-32.94943;-60.62834;32.5;27.1
20211011_180522.0;0.466;-0.805;9.509;-0.026;0.011;-0.024;647.5;-26.231;35.588;-58.125;5.0;-32.94943;-60.62834;32.5;27.1
20211011_180522.5;0.209;-0.587;9.410;-0.016;0.016;-0.055;647.5;-27.056;34.650;-56.081;5.0;-32.94937;-60.62838;31.9;27.8
20211011_180523.0;0.435;-0.795;9.621;0.021;0.017;-0.064;647.5;-30.488;38.663;-56.794;5.0;-32.94937;-60.62838;31.9;27.8
20211011_180523.5;0.233;-0.628;9.319;-0.018;0.000;-0.066;647.5;-18.919;44.475;-71.044;5.0;-32.94930;-60.62843;30.2;28.6
20211011_180524.0;0.279;-0.915;9.173;0.054;-0.030;-0.049;647.5;-21.356;30.450;-60.244;5.0;-32.94930;-60.62843;30.2;28.6
20211011_180524.5;0.267;-0.994;9.446;0.001;0.002;-0.007;647.5;-22.181;30.300;-53.400;5.0;-32.94923;-60.62847;30.1;28.5
20211011_180525.0;-0.162;-1.174;9.619;-0.066;-0.047;0.005;647.5;-16.294;33.206;-67.519;5.0;-32.94923;-60.62847;30.1;28.5
20211011_180525.5;-0.470;-1.454;9.035;0.038;-0.009;-0.013;647.5;-20.756;35.494;-54.056;5.0;-32.94916;-60.62850;30.6;27.8
20211011_180526.0;-0.559;-2.199;9.312;0.006;-0.046;-0.024;647.5;-23.250;32.044;-52.913;5.0;-32.94916;-60.62850;30.6;27.8
20211011_180526.5;0.325;-4.159;9.504;-0.018;-0.030;-0.016;647.5;-16.444;38.738;-63.956;5.0;-32.94910;-60.62852;31.1;26.0
20211011_180527.0;-0.219;-2.468;9.767;0.030;0.016;-0.018;647.5;-23.531;32.063;-53.213;5.0;-32.94910;-60.62852;31.1;26.0
20211011_180527.5;-0.142;-1.644;9.406;0.003;0.007;-0.023;647.5;-23.700;37.125;-56.325;5.0;-32.94905;-60.62854;31.1;17.7
20211011_180528.0;0.059;-1.021;9.267;0.026;0.002;-0.045;587.3;-25.444;33.206;-56.588;5.0;-32.94905;-60.62854;31.1;17.7
20211011_180528.5;0.071;1.329;9.607;0.061;-0.006;-0.004;587.3;-27.394;31.500;-53.738;5.0;-32.94901;-60.62855;31.0;13.4
20211011_180529.0;-0.217;0.754;10.064;-0.056;-0.033;0.006;531.6;-24.113;46.594;-55.406;5.0;-32.94901;-60.62855;31.0;13.4
20211011_180529.5;0.111;0.828;10.266;0.022;0.023;-0.018;531.6;-23.663;31.106;-57.244;5.0;-32.94898;-60.62857;30.9;16.1
20211011_180530.0;-0.051;1.064;9.875;0.002;0.048;0.003;479.7;-21.413;32.813;-55.594;5.0;-32.94898;-60.62857;30.9;16.1
20211011_180530.5;0.028;-0.177;9.664;0.001;-0.005;-0.003;479.7;-25.744;33.675;-55.500;5.0;-32.94893;-60.62858;30.8;21.6
20211011_180531.0;0.174;-1.188;10.462;-0.042;0.018;-0.005;479.7;-19.181;34.050;-64.650;5.0;-32.94893;-60.62858;30.8;21.6
20211011_180531.5;0.011;-0.791;9.793;0.004;0.061;0.012;479.7;-25.050;35.231;-48.225;5.0;-32.94887;-60.62861;31.0;24.7
20211011_180532.0;0.166;-1.092;10.747;0.026;-0.015;0.006;479.7;-26.400;31.631;-55.781;5.0;-32.94887;-60.62861;31.0;24.7
20211011_180532.5;0.109;-1.131;9.477;-0.038;0.010;-0.004;479.7;-20.231;41.325;-60.300;5.0;-32.94881;-60.62863;30.9;24.0
20211011_180533.0;-0.231;-1.212;10.220;0.021;0.004;0.004;479.7;-22.819;32.363;-54.788;5.0;-32.94881;-60.62863;30.9;24.0
20211011_180533.5;0.229;-1.696;9.544;-0.008;0.019;0.025;542.2;-23.381;31.425;-55.388;5.0;-32.94875;-60.62864;30.8;23.6
20211011_180534.0;-0.612;-1.522;9.176;-0.020;-0.009;0.008;542.2;-27.206;35.906;-44.588;5.0;-32.94875;-60.62864;30.8;23.6
20211011_180534.5;-1.532;-1.114;10.680;0.019;-0.095;-0.042;542.2;-18.713;34.031;-55.500;5.0;-32.94870;-60.62866;31.3;20.8
20211011_180535.0;-0.209;-1.332;9.003;-0.015;-0.022;-0.015;542.2;-23.756;34.594;-54.619;5.0;-32.94870;-60.62866;31.3;20.8
20211011_180535.5;0.543;-1.104;9.700;0.021;-0.029;-0.000;542.2;-26.288;33.056;-53.775;5.0;-32.94866;-60.62868;31.1;18.4
20211011_180536.0;-0.224;-1.385;10.009;-0.039;-0.013;0.005;486.7;-32.925;39.788;-47.888;5.0;-32.94866;-60.62868;31.1;18.4
20211011_180536.5;-0.231;-1.538;8.900;0.029;-0.027;0.001;486.7;-20.831;32.175;-63.844;5.0;-32.94862;-60.62869;30.9;16.1
20211011_180537.0;-0.320;-0.815;8.584;0.083;0.018;0.009;486.7;-24.788;31.444;-50.231;5.0;-32.94862;-60.62869;30.9;16.1
20211011_180537.5;-0.257;-0.345;9.370;-0.053;0.032;-0.003;486.7;-31.350;33.938;-56.756;5.0;-32.94857;-60.62870;32.6;16.3
20211011_180538.0;-0.379;-2.987;10.764;-0.043;0.024;-0.015;486.7;-30.263;31.219;-55.238;5.0;-32.94857;-60.62870;32.6;16.3
20211011_180538.5;-2.330;0.306;11.760;-0.023;0.092;0.022;486.7;-28.200;44.138;-50.794;5.0;-32.94853;-60.62872;32.5;17.4
20211011_180539.0;0.828;0.215;8.701;-0.008;0.021;-0.018;486.7;-26.738;33.375;-59.194;5.0;-32.94853;-60.62872;32.5;17.4
20211011_180539.5;-0.025;-0.417;10.364;0.017;-0.051;-0.001;486.7;-32.063;33.938;-55.500;5.0;-32.94848;-60.62873;33.2;17.4
20211011_180540.0;-1.072;-0.242;8.795;-0.045;-0.126;-0.026;545.1;-31.444;32.194;-56.138;5.0;-32.94848;-60.62873;33.2;17.4
20211011_180540.5;0.145;-0.257;9.841;-0.029;-0.063;-0.031;613.1;-33.244;35.531;-47.869;5.0;-32.94844;-60.62875;32.8;19.1
20211011_180541.0;-0.767;-2.022;9.949;0.005;-0.033;-0.013;613.1;-25.050;33.994;-62.044;5.0;-32.94844;-60.62875;32.8;19.1
20211011_180541.5;0.478;-0.408;8.766;0.043;-0.088;-0.028;613.1;-29.194;33.900;-54.019;5.0;-32.94839;-60.62876;33.3;18.8
20211011_180542.0;1.489;-1.452;12.285;-0.010;0.017;-0.000;613.1;-27.356;29.925;-59.494;5.0;-32.94839;-60.62876;33.3;18.8
20211011_180542.5;-0.617;-1.426;11.796;-0.104;0.084;0.012;613.1;-29.438;28.050;-53.231;5.0;-32.94835;-60.62878;33.6;17.7
20211011_180543.0;-1.627;-1.701;9.226;0.044;0.124;0.041;613.1;-25.294;48.188;-46.519;5.0;-32.94835;-60.62878;33.6;17.7
20211011_180543.5;1.499;-0.649;8.890;-0.071;0.108;-0.038;613.1;-24.656;30.825;-59.400;5.0;-32.94831;-60.62879;33.2;16.4
20211011_180544.0;0.646;-0.736;9.494;0.032;0.046;0.002;554.0;-29.963;30.900;-52.744;5.0;-32.94831;-60.62879;33.2;16.4
20211011_180544.5;-0.655;0.117;9.145;-0.013;-0.017;0.008;554.0;-24.975;36.506;-57.694;5.0;-32.94827;-60.62881;32.6;15.2
20211011_180545.0;-0.624;-0.218;9.190;0.003;-0.008;0.024;554.0;-26.456;33.694;-57.338;5.0;-32.94827;-60.62881;32.6;15.2
20211011_180545.5;-0.231;-0.582;9.080;0.017;-0.021;0.058;554.0;-27.094;45.863;-49.425;5.0;-32.94823;-60.62882;32.6;16.7
20211011_180546.0;-0.399;-0.218;10.333;-0.037;0.002;0.031;554.0;-26.306;28.163;-63.544;5.0;-32.94823;-60.62882;32.6;16.7
20211011_180546.5;-0.059;-0.511;10.263;0.034;-0.006;0.039;554.0;-31.406;46.406;-49.013;5.0;-32.94819;-60.62884;31.8;18.4
20211011_180547.0;-0.315;-0.158;9.489;0.020;0.001;0.050;554.0;-28.125;26.306;-61.631;5.0;-32.94815;-60.62885;32.5;20.6
20211011_180547.5;0.198;-0.549;9.789;-0.019;0.077;0.047;554.0;-25.144;43.613;-43.425;5.0;-32.94815;-60.62885;32.5;20.6
20211011_180548.0;-0.554;-1.632;9.600;-0.013;0.020;0.042;554.0;-24.094;25.763;-65.606;5.0;-32.94810;-60.62887;31.8;20.7
20211011_180548.5;-0.518;-0.791;8.931;0.059;0.040;0.017;554.0;-28.238;46.500;-41.175;5.0;-32.94810;-60.62887;31.8;20.7
20211011_180549.0;-0.478;-1.651;8.893;0.004;-0.016;0.008;554.0;-23.156;28.106;-64.088;5.0;-32.94805;-60.62890;32.0;17.3
20211011_180549.5;-0.518;-1.763;9.238;0.013;0.062;0.045;554.0;-26.569;28.313;-53.288;5.0;-32.94805;-60.62890;32.0;17.3
20211011_180550.0;-0.253;-0.307;8.546;0.028;-0.035;0.048;554.0;-22.556;51.319;-61.669;5.0;-32.94801;-60.62892;32.1;15.7
20211011_180550.5;-1.158;-1.001;8.704;0.009;-0.050;0.043;554.0;-24.319;28.763;-64.519;5.0;-32.94801;-60.62892;32.1;15.7
20211011_180551.0;-1.503;-0.165;9.978;-0.048;0.051;0.023;554.0;-24.394;32.231;-54.600;5.0;-32.94798;-60.62894;32.7;15.2
20211011_180551.5;-0.667;-0.053;9.693;0.002;0.032;0.075;554.0;-22.013;32.513;-68.156;5.0;-32.94798;-60.62894;32.7;15.2
20211011_180552.0;-1.043;-0.379;10.235;-0.004;-0.011;0.061;554.0;-20.475;30.263;-57.788;5.0;-32.94794;-60.62897;32.5;16.0
20211011_180552.5;-0.693;-0.585;9.619;-0.036;-0.008;0.049;554.0;-19.594;49.369;-51.169;5.0;-32.94794;-60.62897;32.5;16.0
20211011_180553.0;-0.743;-1.128;9.561;0.036;0.021;0.041;554.0;-19.406;26.944;-68.363;5.0;-32.94791;-60.62900;33.0;17.0
20211011_180553.5;0.342;-0.657;10.407;-0.009;0.032;0.032;554.0;-22.200;30.300;-55.425;5.0;-32.94791;-60.62900;33.0;17.0
20211011_180554.0;-0.597;-0.523;10.035;-0.002;0.038;0.039;554.0;-22.838;31.275;-69.375;5.0;-32.94787;-60.62903;31.8;17.8
20211011_180554.5;0.006;-0.458;8.878;0.038;0.048;0.045;554.0;-23.550;27.169;-58.013;5.0;-32.94787;-60.62903;31.8;17.8
20211011_180555.0;-2.035;-0.879;9.049;0.019;0.030;0.075;554.0;-21.863;52.406;-63.075;5.0;-32.94783;-60.62907;31.7;18.7
20211011_180555.5;-1.079;-0.196;8.759;0.003;0.035;0.061;617.5;-24.544;26.231;-64.819;5.0;-32.94783;-60.62907;31.7;18.7
20211011_180556.0;-0.253;-0.649;9.691;0.007;-0.095;0.004;617.5;-22.275;42.300;-58.069;5.0;-32.94779;-60.62911;31.8;19.2
20211011_180557.0;-0.463;-0.693;9.753;-0.033;-0.064;0.025;701.6;-23.119;27.000;-64.088;5.0;-32.94779;-60.62911;31.8;19.2
20211011_180557.5;-0.130;-0.637;9.949;0.012;-0.039;0.055;779.7;-20.269;38.794;-45.075;5.0;-32.94776;-60.62915;31.2;19.3
20211011_180558.0;-1.101;-0.357;9.832;-0.011;-0.104;0.022;779.7;-19.181;24.413;-68.513;5.0;-32.94776;-60.62915;31.2;19.3
20211011_180558.5;-1.359;-0.932;9.602;-0.006;0.030;0.055;779.7;-21.281;33.281;-53.888;5.0;-32.94772;-60.62919;31.8;19.6
20211011_180559.0;-0.564;-0.740;9.990;0.020;-0.064;0.028;779.7;-15.075;26.869;-63.506;5.0;-32.94772;-60.62919;31.8;19.6
20211011_180559.5;-0.468;-1.104;9.590;-0.005;-0.043;0.014;779.7;-19.313;30.563;-49.275;5.0;-32.94769;-60.62924;31.4;19.5
20211011_180600.0;-0.840;-1.116;9.346;0.024;-0.180;-0.059;779.7;-12.975;27.938;-71.925;5.0;-32.94769;-60.62924;31.4;19.5
20211011_180600.5;0.818;-1.680;9.619;-0.008;-0.045;-0.002;779.7;-14.550;28.913;-59.475;5.0;-32.94766;-60.62928;31.6;19.3
20211011_180601.0;-0.212;-1.071;8.900;0.044;-0.046;0.007;779.7;-17.700;32.438;-65.925;5.0;-32.94766;-60.62928;31.6;19.3
20211011_180601.5;-0.111;-0.369;10.309;0.005;-0.023;0.001;779.7;-18.319;25.331;-58.294;5.0;-32.94762;-60.62932;31.6;19.0
20211011_180602.0;-0.171;0.034;9.166;0.024;-0.012;0.012;779.7;-14.700;42.975;-61.050;5.0;-32.94762;-60.62932;31.6;19.0
20211011_180602.5;-1.220;-0.379;9.303;-0.036;-0.020;0.005;779.7;-17.269;28.481;-58.781;5.0;-32.94759;-60.62937;31.8;20.3
20211011_180603.0;-0.037;-0.329;10.117;0.023;0.011;0.042;779.7;-18.394;32.456;-59.400;5.0;-32.94759;-60.62937;31.8;20.3
20211011_180603.5;-1.642;-0.714;9.760;0.021;0.009;0.028;779.7;-18.281;29.438;-53.494;5.0;-32.94756;-60.62942;32.1;22.0
20211011_180604.0;0.023;0.601;7.793;-0.099;0.021;0.013;779.7;-13.481;30.319;-68.513;5.0;-32.94756;-60.62942;32.1;22.0
20211011_180604.5;-0.166;0.608;9.245;0.058;0.007;0.006;779.7;-16.519;27.675;-58.331;5.0;-32.94752;-60.62947;31.5;23.8
20211011_180605.0;-0.152;-0.563;10.491;-0.096;0.078;0.021;779.7;-16.013;25.144;-53.531;5.0;-32.94752;-60.62947;31.5;23.8
20211011_180605.5;-0.111;0.555;10.436;-0.133;0.001;0.012;779.7;-14.438;29.231;-65.850;5.0;-32.94748;-60.62953;31.3;27.3
20211011_180606.0;-0.888;-0.839;10.113;-0.024;0.026;0.026;702.6;-17.344;30.694;-61.125;5.0;-32.94748;-60.62953;31.3;27.3
20211011_180606.5;-0.418;-1.104;10.419;-0.009;-0.024;0.006;702.6;-23.100;27.300;-49.800;5.0;-32.94744;-60.62960;31.2;29.9
20211011_180607.0;-0.509;-0.829;9.861;0.001;-0.026;-0.003;634.0;-17.850;23.756;-61.406;5.0;-32.94744;-60.62960;31.2;29.9
20211011_180607.5;-0.145;0.251;10.663;0.017;-0.021;0.009;634.0;-16.800;27.056;-60.975;5.0;-32.94739;-60.62968;30.8;31.1
20211011_180608.0;-0.868;0.251;10.548;-0.021;-0.015;0.031;634.0;-11.644;37.538;-54.431;5.0;-32.94739;-60.62968;30.8;31.1
20211011_180608.5;-0.751;-0.134;10.587;0.013;-0.062;-0.022;634.0;-18.488;36.075;-57.844;5.0;-32.94734;-60.62976;30.4;34.3
20211011_180609.0;0.226;-0.266;9.437;0.023;-0.034;-0.023;714.3;-20.250;37.688;-49.256;5.0;-32.94734;-60.62976;30.4;34.3
20211011_180609.5;-0.051;-0.968;10.666;0.029;0.077;0.021;714.3;-19.688;28.669;-52.369;5.0;-32.94729;-60.62984;30.6;37.2
20211011_180610.0;-0.097;-0.182;10.218;-0.013;0.020;-0.037;714.3;-26.663;31.163;-54.075;5.0;-32.94729;-60.62984;30.6;37.2
20211011_180610.5;-1.089;-0.944;10.175;0.023;0.015;0.012;714.3;-22.744;29.363;-58.669;5.0;-32.94723;-60.62993;30.4;39.3
20211011_180611.0;0.099;-0.781;10.045;0.044;-0.038;-0.017;808.3;-24.188;30.019;-53.663;5.0;-32.94723;-60.62993;30.4;39.3
20211011_180611.5;0.025;-0.728;9.480;0.010;0.001;-0.008;808.3;-22.031;29.663;-57.431;5.0;-32.94717;-60.63002;30.4;40.1
20211011_180612.0;-0.981;-0.798;9.796;0.044;0.065;0.021;808.3;-23.344;26.213;-51.656;5.0;-32.94717;-60.63002;30.4;40.1
20211011_180612.5;-1.220;-1.433;9.523;0.030;0.012;0.026;808.3;-21.469;30.281;-56.213;5.0;-32.94710;-60.63012;30.2;40.0
20211011_180613.0;0.214;-1.565;9.307;-0.032;-0.003;-0.015;808.3;-23.213;26.044;-54.150;5.0;-32.94710;-60.63012;30.2;40.0
20211011_180613.5;-0.040;-1.018;9.791;-0.024;-0.030;-0.017;808.3;-14.794;27.169;-57.600;5.0;-32.94704;-60.63022;30.6;39.1
20211011_180614.0;-0.300;-1.073;9.583;0.026;0.020;0.006;808.3;-21.019;24.750;-54.656;5.0;-32.94704;-60.63022;30.6;39.1
20211011_180614.5;-0.796;-0.693;9.861;-0.056;0.029;0.031;808.3;-18.600;29.456;-60.938;5.0;-32.94698;-60.63031;30.4;38.2
20211011_180615.0;-0.528;-0.745;9.978;-0.068;-0.002;0.009;808.3;-17.813;27.863;-54.731;5.0;-32.94698;-60.63031;30.4;38.2
20211011_180615.5;-0.150;-0.815;8.943;0.007;0.021;0.003;808.3;-11.625;31.388;-63.581;5.0;-32.94692;-60.63041;30.6;37.9
20211011_180616.0;-0.277;-0.614;9.413;-0.020;-0.034;-0.015;808.3;-17.981;27.713;-62.194;5.0;-32.94692;-60.63041;30.6;37.9
20211011_180616.5;-0.382;-2.137;10.565;-0.055;-0.030;-0.021;728.6;-15.113;47.700;-55.613;5.0;-32.94687;-60.63048;30.8;35.9
20211011_180617.0;-0.423;-3.536;9.963;0.007;0.001;-0.001;651.7;-15.506;32.400;-54.806;5.0;-32.94687;-60.63048;30.8;35.9
20211011_180617.5;-0.226;-2.487;9.379;0.008;-0.019;-0.009;585.0;-20.625;26.325;-51.563;5.0;-32.94682;-60.63055;30.4;31.9
20211011_180618.0;-0.502;-2.376;8.754;0.031;0.004;-0.019;585.0;-13.744;29.531;-71.138;5.0;-32.94682;-60.63055;30.4;31.9
20211011_180618.5;-0.365;-1.756;9.703;-0.011;-0.011;-0.025;585.0;-18.300;24.544;-55.969;5.0;-32.94678;-60.63061;30.3;23.4
20211011_180619.0;0.044;-1.135;9.865;0.011;0.022;-0.017;585.0;-19.425;29.306;-54.544;5.0;-32.94678;-60.63061;30.3;23.4
20211011_180619.5;0.188;-1.056;9.389;-0.010;0.006;-0.013;585.0;-20.644;51.281;-48.975;5.0;-32.94675;-60.63067;29.6;19.7
20211011_180620.0;-0.262;-0.630;9.631;0.052;-0.017;-0.018;585.0;-19.331;25.350;-59.513;5.0;-32.94675;-60.63067;29.6;19.7
20211011_180620.5;-0.286;-0.050;10.098;0.018;0.039;-0.009;585.0;-22.781;31.256;-52.463;5.0;-32.94673;-60.63071;29.5;18.1
20211011_180621.0;-0.595;0.340;10.052;0.001;0.014;-0.027;585.0;-22.538;23.044;-49.331;5.0;-32.94673;-60.63071;29.5;18.1
20211011_180621.5;0.056;0.019;10.057;-0.040;-0.023;-0.038;585.0;-16.950;41.269;-63.788;5.0;-32.94669;-60.63076;29.8;21.2
20211011_180622.0;0.037;0.280;10.692;-0.003;-0.029;-0.051;585.0;-22.013;28.875;-55.256;5.0;-32.94669;-60.63076;29.8;21.2
20211011_180622.5;0.438;0.132;10.429;-0.026;0.049;-0.046;585.0;-22.688;27.788;-56.325;5.0;-32.94664;-60.63082;29.7;24.7
20211011_180623.0;-0.907;-0.946;10.534;-0.014;0.007;-0.029;585.0;-18.825;41.306;-64.988;5.0;-32.94664;-60.63082;29.7;24.7
20211011_180623.5;0.895;-0.508;9.221;-0.004;0.017;-0.037;651.2;-24.656;31.294;-55.519;5.0;-32.94659;-60.63087;29.8;28.7
20211011_180624.0;-0.119;0.630;10.867;0.028;-0.022;-0.033;651.2;-19.950;27.881;-51.900;5.0;-32.94659;-60.63087;29.8;28.7
20211011_180624.5;0.092;0.520;7.305;-0.052;0.005;-0.002;651.2;-17.550;28.163;-62.363;5.0;-32.94653;-60.63094;29.7;30.3
20211011_180625.0;-0.123;0.776;9.999;0.014;-0.011;-0.025;587.5;-26.363;30.056;-57.019;5.0;-32.94653;-60.63094;29.7;30.3
20211011_180625.5;0.660;0.328;9.784;-0.038;0.040;0.003;534.0;-21.319;48.131;-63.863;5.0;-32.94647;-60.63100;28.8;33.8
20211011_180626.0;-0.470;0.069;11.344;-0.053;-0.017;-0.015;534.0;-23.756;34.594;-52.594;5.0;-32.94647;-60.63100;28.8;33.8
