Timestamp,Accel_x,Accel_y,Accel_z,Gyro_x,Gyro_y,Gyro_z,Light,Magnetic_x,Magnetic_y,Magnetic_z,Proximity,Latitude,Longitude,Elevation,Speed
20211011_191233,-0.281,-0.975,9.645,0.001,-0.003,-0.002,12.2,-21.375,3.281,-52.594,5.0,-32.93321,-60.65631,31.8,0.0
20211011_191233,-0.221,-0.939,9.607,-0.002,0.002,0.001,12.2,-19.163,5.775,-53.269,5.0,-32.93321,-60.65631,31.9,0.0
20211011_191234,-0.243,-0.874,9.628,0.002,-0.003,-0.002,12.2,-19.744,6.094,-56.213,5.0,-32.93322,-60.65631,32.0,0.0
20211011_191234,-0.274,-0.879,9.650,0.003,-0.004,0.001,12.2,-19.763,6.413,-54.656,5.0,-32.93322,-60.65631,32.0,0.0
20211011_191235,-0.181,-1.040,9.856,-0.003,-0.003,-0.000,12.2,-18.600,6.075,-56.231,5.0,-32.93322,-60.65631,32.2,0.0
20211011_191235,-0.454,-0.264,9.853,0.003,-0.003,0.036,12.2,-20.025,5.625,-55.725,5.0,-32.93322,-60.65631,32.2,0.0
20211011_191236,-0.324,0.290,9.695,0.010,-0.014,0.091,12.2,-20.644,7.369,-57.113,5.0,-32.93321,-60.65631,31.6,0.0
20211011_191236,-0.260,0.196,9.600,-0.008,-0.011,0.094,12.2,-21.169,5.644,-54.150,5.0,-32.93321,-60.65631,31.6,0.0
20211011_191237,-0.164,-0.513,9.530,-0.033,-0.009,0.067,12.2,-22.013,5.025,-53.663,5.0,-32.93322,-60.65632,31.4,0.0
20211011_191237,-0.071,-0.132,9.805,-0.009,-0.014,0.009,12.2,-21.900,6.131,-54.919,5.0,-32.93322,-60.65632,31.4,0.0
20211011_191238,0.174,0.012,9.659,0.007,-0.032,-0.028,15.9,-21.338,6.281,-56.325,5.0,-32.93322,-60.65632,31.1,0.0
20211011_191238,0.178,-0.515,9.226,-0.003,-0.011,-0.035,32.8,-22.519,7.406,-55.838,5.0,-32.93322,-60.65632,31.1,0.0
20211011_191239,-0.066,-1.145,9.645,-0.014,-0.004,-0.046,26.0,-20.025,5.306,-56.981,5.0,-32.93324,-60.65632,34.1,6.3
20211011_191239,-0.042,-1.416,9.782,0.021,0.009,-0.055,23.2,-20.006,5.306,-55.725,5.0,-32.93324,-60.65632,34.1,6.3
20211011_191240,0.195,-1.112,9.655,0.015,0.013,-0.039,20.8,-20.288,5.006,-55.875,5.0,-32.93327,-60.65633,33.9,8.9
20211011_191240,-0.008,-1.143,9.880,-0.010,-0.039,0.064,18.9,-21.131,4.069,-56.475,5.0,-32.93327,-60.65633,33.9,8.9
20211011_191241,-0.095,-1.366,9.839,-0.014,-0.022,0.088,18.9,-18.394,3.863,-55.913,5.0,-32.93330,-60.65633,32.2,10.0
20211011_191241,-0.097,-0.609,9.465,0.004,-0.022,0.158,24.1,-21.769,1.706,-55.369,5.0,-32.93330,-60.65633,32.2,10.0
20211011_191242,-0.530,-0.367,9.978,0.034,-0.016,0.246,24.1,-22.688,4.406,-47.738,5.0,-32.93333,-60.65633,36.4,11.3
20211011_191242,-1.371,-0.177,9.892,0.068,-0.060,0.387,24.1,-20.775,6.900,-52.294,5.0,-32.93333,-60.65633,36.4,11.3
20211011_191243,-1.922,0.249,10.596,-0.007,-0.052,0.434,26.8,-23.363,6.938,-54.881,5.0,-32.93335,-60.65633,32.6,9.8
20211011_191243,-2.373,0.158,8.620,-0.004,-0.075,0.451,26.8,-29.738,8.794,-56.138,5.0,-32.93335,-60.65633,32.6,9.8
20211011_191244,-1.608,-0.460,8.584,0.034,-0.063,0.377,39.1,-31.200,9.600,-57.188,5.0,-32.93338,-60.65632,31.8,11.2
20211011_191244,-0.231,-0.247,10.285,0.010,-0.029,0.288,73.8,-35.269,11.100,-61.444,5.0,-32.93338,-60.65632,31.8,11.2
20211011_191245,-0.138,-0.556,9.722,0.013,-0.029,0.153,43.8,-41.700,10.575,-53.531,5.0,-32.93340,-60.65631,31.8,11.7
20211011_191245,-0.181,-0.084,9.604,0.013,0.032,0.085,30.9,-36.206,14.119,-55.369,5.0,-32.93340,-60.65631,31.8,11.7
20211011_191246,-0.727,-1.176,10.042,-0.043,-0.048,0.036,18.6,-38.531,14.775,-54.844,5.0,-32.93342,-60.65628,31.8,12.1
20211011_191246,-0.731,-0.822,10.381,-0.027,-0.037,0.033,13.3,-38.644,18.263,-57.488,5.0,-32.93342,-60.65628,31.8,12.1
20211011_191247,0.044,-0.503,9.161,-0.041,0.002,0.041,8.4,-40.631,13.238,-54.806,5.0,-32.93344,-60.65623,35.4,14.9
20211011_191247,0.299,0.113,9.856,-0.094,-0.029,-0.017,5.6,-40.350,12.769,-61.331,5.0,-32.93344,-60.65623,35.4,14.9
20211011_191248,0.715,-0.055,9.875,-0.001,0.000,0.017,6.4,-40.500,13.406,-55.725,5.0,-32.93346,-60.65618,36.3,15.7
20211011_191248,0.411,-0.628,8.419,-0.003,0.047,0.043,8.0,-40.519,14.494,-55.275,5.0,-32.93346,-60.65618,36.3,15.7
20211011_191249,0.809,-1.912,10.443,0.021,0.017,0.028,14.6,-40.706,15.131,-58.988,5.0,-32.93348,-60.65612,36.6,17.9
20211011_191250,0.418,-1.313,8.478,0.011,0.011,0.011,35.0,-38.925,14.006,-55.463,5.0,-32.93348,-60.65612,36.6,17.9
20211011_191250,0.732,-1.498,9.990,-0.076,0.009,0.005,39.4,-39.788,14.175,-53.419,5.0,-32.93352,-60.65605,35.3,20.2
20211011_191251,-0.063,-1.402,10.189,0.022,0.039,-0.005,29.2,-39.544,14.963,-56.063,5.0,-32.93352,-60.65605,35.3,20.2
20211011_191251,0.181,-0.707,10.603,0.040,-0.037,0.006,22.5,-37.819,15.094,-54.863,5.0,-32.93357,-60.65594,34.9,22.8
20211011_191252,1.170,-0.719,9.846,-0.006,0.054,-0.003,22.5,-38.794,14.156,-54.994,5.0,-32.93357,-60.65594,34.9,22.8
20211011_191252,0.718,-0.307,9.772,0.022,-0.011,-0.036,16.1,-39.263,15.113,-55.913,5.0,-32.93360,-60.65585,35.9,24.0
20211011_191253,1.425,-0.728,10.035,-0.005,-0.006,-0.009,16.3,-38.381,14.475,-55.781,5.0,-32.93360,-60.65585,35.9,24.0
20211011_191253,0.909,-0.963,9.130,0.029,0.009,-0.013,22.4,-36.863,17.119,-54.113,5.0,-32.93362,-60.65580,36.0,23.6
20211011_191254,0.392,-1.390,9.092,0.013,-0.011,-0.030,25.8,-38.794,14.475,-53.438,5.0,-32.93362,-60.65580,36.0,23.6
20211011_191254,0.121,-1.179,8.524,0.037,0.004,-0.010,28.8,-37.519,14.775,-54.413,5.0,-32.93369,-60.65571,35.7,25.2
20211011_191255,-0.166,0.263,10.059,0.020,-0.016,0.018,28.8,-37.275,16.031,-53.794,5.0,-32.93369,-60.65571,35.7,25.2
20211011_191255,0.442,-1.737,10.493,0.015,-0.043,0.009,28.8,-36.788,13.969,-55.969,5.0,-32.93370,-60.65562,36.1,26.5
20211011_191256,0.483,-1.593,10.047,0.029,0.023,0.023,28.8,-39.431,11.794,-52.950,5.0,-32.93370,-60.65562,36.1,26.5
20211011_191256,0.294,0.283,7.976,0.056,-0.045,-0.028,28.8,-40.594,16.556,-55.275,5.0,-32.93370,-60.65552,36.7,29.7
20211011_191257,0.344,-1.715,9.698,-0.019,-0.004,0.000,37.1,-37.688,15.244,-58.444,5.0,-32.93370,-60.65552,36.7,29.7
20211011_191257,0.730,-2.935,9.729,-0.019,-0.042,-0.026,62.7,-38.250,15.094,-57.038,5.0,-32.93372,-60.65543,35.6,26.1
20211011_191258,0.265,-3.421,9.188,0.039,-0.016,-0.031,54.5,-38.756,12.581,-55.763,5.0,-32.93372,-60.65543,35.6,26.1
20211011_191258,0.684,-3.701,9.346,-0.037,0.012,-0.006,42.6,-36.956,14.438,-60.019,5.0,-32.93374,-60.65536,38.4,23.9
20211011_191259,0.675,-3.917,9.121,0.009,0.011,-0.000,38.1,-38.419,15.731,-58.894,5.0,-32.93374,-60.65536,38.4,23.9
20211011_191259,0.562,-2.456,9.667,0.005,-0.011,-0.013,38.1,-39.563,15.281,-59.644,5.0,-32.93373,-60.65531,39.0,19.5
20211011_191300,0.500,-1.612,9.985,0.001,-0.003,0.008,34.7,-38.250,15.094,-58.275,5.0,-32.93373,-60.65531,39.0,19.5
20211011_191300,0.658,0.189,9.861,0.041,0.006,0.009,34.7,-39.094,14.475,-57.638,5.0,-32.93373,-60.65525,38.2,13.2
20211011_191301,1.046,-0.233,10.127,0.017,0.052,0.008,38.6,-38.981,15.113,-58.575,5.0,-32.93373,-60.65525,38.2,13.2
20211011_191301,0.629,0.632,10.555,-0.021,-0.031,0.027,38.6,-39.825,14.963,-58.856,5.0,-32.93370,-60.65522,35.2,9.6
20211011_191302,-0.195,1.042,7.120,0.024,0.006,-0.008,38.6,-38.850,15.731,-56.081,5.0,-32.93370,-60.65522,35.2,9.6
20211011_191302,0.308,-0.836,9.063,-0.038,0.004,-0.012,38.6,-39.825,14.963,-55.744,5.0,-32.93368,-60.65517,35.4,11.4
20211011_191303,-0.080,-1.174,9.379,-0.002,-0.018,0.003,38.6,-38.513,14.306,-56.250,5.0,-32.93368,-60.65517,35.4,11.4
20211011_191303,0.231,0.611,9.705,-0.023,-0.028,0.002,38.6,-38.531,14.794,-59.044,5.0,-32.93370,-60.65512,38.0,14.7
20211011_191304,0.267,0.855,9.341,-0.002,-0.008,-0.018,35.0,-39.694,15.600,-56.681,5.0,-32.93370,-60.65512,38.0,14.7
20211011_191304,-0.121,0.711,9.262,-0.071,-0.016,0.003,31.0,-38.194,13.200,-56.250,5.0,-32.93367,-60.65508,33.1,16.6
20211011_191305,0.209,0.905,9.841,-0.010,-0.015,0.011,23.9,-36.769,13.500,-57.525,5.0,-32.93367,-60.65508,33.1,16.6
20211011_191305,0.509,1.337,9.437,0.158,0.052,0.019,24.5,-39.131,15.750,-57.319,5.0,-32.93368,-60.65503,32.7,18.0
20211011_191306,1.319,-1.763,7.788,-0.081,0.050,0.033,38.6,-39.975,15.131,-55.894,5.0,-32.93368,-60.65503,32.7,18.0
20211011_191306,0.490,-1.152,9.509,0.006,0.011,0.008,27.8,-38.831,15.263,-59.963,5.0,-32.93370,-60.65497,32.7,20.5
20211011_191307,-0.083,-0.896,10.127,-0.026,0.006,0.019,24.9,-40.988,15.300,-55.256,5.0,-32.93370,-60.65497,32.7,20.5
20211011_191307,0.390,0.651,8.447,0.044,-0.006,-0.022,24.9,-37.238,14.925,-56.588,5.0,-32.93371,-60.65486,32.5,28.4
20211011_191308,0.090,-0.038,9.959,0.030,-0.002,-0.005,24.9,-39.563,16.069,-56.063,5.0,-32.93371,-60.65486,32.5,28.4
20211011_191308,-0.401,-0.704,10.201,0.006,0.040,0.005,24.9,-42.675,14.231,-56.775,5.0,-32.93373,-60.65476,31.9,33.2
20211011_191309,-0.090,-0.788,9.365,-0.012,0.030,0.016,15.6,-39.244,14.794,-58.556,5.0,-32.93373,-60.65476,31.9,33.2
20211011_191309,-0.255,-1.335,10.939,-0.035,-0.021,-0.005,27.0,-41.025,16.556,-56.044,5.0,-32.93376,-60.65463,33.0,38.6
20211011_191310,0.706,-0.865,9.597,0.061,0.011,-0.000,16.1,-40.613,16.875,-58.369,5.0,-32.93376,-60.65463,33.0,38.6
20211011_191310,0.773,-1.948,8.862,-0.053,-0.052,-0.044,13.9,-40.575,16.088,-57.600,5.0,-32.93378,-60.65452,32.8,36.7
20211011_191311,1.554,-0.973,7.793,-0.019,0.052,0.004,12.5,-37.763,17.306,-61.238,5.0,-32.93378,-60.65452,32.8,36.7
20211011_191311,1.366,-1.241,9.042,-0.059,0.045,0.008,11.1,-38.250,14.775,-56.719,5.0,-32.93378,-60.65438,31.2,40.9
20211011_191312,0.950,-1.340,8.105,-0.049,0.026,-0.007,21.5,-36.300,16.481,-60.038,5.0,-32.93378,-60.65438,31.2,40.9
20211011_191312,0.574,-1.385,8.929,0.003,-0.052,-0.032,28.7,-39.506,13.856,-59.944,5.0,-32.93380,-60.65429,30.8,35.9
20211011_191313,0.186,-1.303,7.482,-0.054,0.006,-0.013,22.4,-38.625,17.794,-59.044,5.0,-32.93380,-60.65429,30.8,35.9
20211011_191313,0.183,-2.880,9.834,-0.056,-0.032,-0.018,20.0,-37.763,18.094,-58.444,5.0,-32.93383,-60.65418,30.7,35.2
20211011_191314,0.430,-2.465,9.911,0.035,0.035,0.011,20.0,-38.869,16.050,-59.663,5.0,-32.93383,-60.65418,30.7,35.2
20211011_191314,1.027,-2.880,8.999,-0.046,-0.010,0.003,20.0,-41.719,15.788,-60.375,5.0,-32.93385,-60.65406,32.7,33.7
20211011_191315,0.126,-2.242,9.367,0.015,-0.032,-0.016,18.1,-39.881,16.556,-58.088,5.0,-32.93385,-60.65406,32.7,33.7
20211011_191315,0.154,-1.828,8.713,-0.028,0.035,0.010,20.2,-41.006,15.769,-57.581,5.0,-32.93388,-60.65395,33.8,29.7
20211011_191316,1.019,-2.441,10.620,-0.019,0.071,0.004,23.1,-40.631,13.238,-52.463,5.0,-32.93388,-60.65395,33.8,29.7
20211011_191316,-1.086,0.089,11.289,0.035,0.054,0.006,60.3,-40.744,16.406,-58.219,5.0,-32.93386,-60.65387,32.0,25.2
20211011_191317,0.257,-0.343,9.853,-0.005,-0.010,0.002,61.2,-40.444,16.406,-55.894,5.0,-32.93386,-60.65387,32.0,25.2
20211011_191317,0.193,-0.673,9.140,0.051,0.021,-0.001,61.2,-43.125,14.231,-62.194,5.0,-32.93387,-60.65379,32.1,24.3
20211011_191318,-0.279,-0.050,9.820,0.024,-0.023,0.017,55.0,-43.838,14.569,-56.438,5.0,-32.93387,-60.65379,32.1,24.3
20211011_191318,-0.140,-0.491,9.348,0.023,0.005,0.034,49.5,-47.963,14.156,-47.944,5.0,-32.93392,-60.65372,34.6,26.4
20211011_191319,0.562,0.314,10.038,-0.056,0.042,0.045,44.8,-43.275,15.188,-54.731,5.0,-32.93392,-60.65372,34.6,26.4
20211011_191319,-0.815,-0.134,10.802,0.089,-0.003,-0.038,35.2,-43.781,17.250,-61.256,5.0,-32.93393,-60.65363,35.2,30.2
20211011_191320,-0.336,-0.542,10.220,0.004,-0.041,-0.027,24.9,-42.075,13.275,-60.506,5.0,-32.93393,-60.65363,35.2,30.2
20211011_191320,2.078,0.256,11.370,0.146,0.013,0.016,17.8,-41.419,15.938,-54.319,5.0,-32.93394,-60.65353,33.4,32.2
20211011_191321,0.684,-0.511,10.220,0.004,0.011,0.025,13.9,-41.213,17.513,-60.844,5.0,-32.93394,-60.65353,33.4,32.2
20211011_191321,0.912,-0.618,9.018,-0.020,-0.001,-0.007,13.9,-39.563,15.281,-61.200,5.0,-32.93395,-60.65344,33.1,33.2
20211011_191322,0.507,-1.021,9.837,-0.010,-0.013,-0.006,18.2,-40.294,16.088,-58.856,5.0,-32.93395,-60.65344,33.1,33.2
20211011_191322,0.514,-1.754,9.157,-0.022,-0.016,0.003,22.7,-42.450,15.806,-58.800,5.0,-32.93395,-60.65332,33.1,34.4
20211011_191323,0.152,-0.815,9.851,0.005,-0.017,-0.025,22.7,-37.706,15.713,-58.125,5.0,-32.93395,-60.65332,33.1,34.4
20211011_191323,0.833,-1.138,10.225,-0.052,-0.042,-0.010,22.7,-39.713,15.919,-57.769,5.0,-32.93397,-60.65320,32.2,36.4
20211011_191324,0.226,-1.016,9.403,-0.068,0.002,-0.024,22.7,-36.394,15.075,-62.194,5.0,-32.93397,-60.65320,32.2,36.4
20211011_191324,0.643,-1.818,9.762,-0.048,-0.045,-0.024,25.3,-37.144,16.650,-57.844,5.0,-32.93400,-60.65311,31.4,35.2
20211011_191325,0.818,-1.313,10.019,-0.028,0.022,0.007,28.6,-38.100,14.944,-58.125,5.0,-32.93400,-60.65311,31.4,35.2
20211011_191325,1.347,-1.421,9.817,-0.020,0.044,0.030,31.8,-37.913,18.244,-58.594,5.0,-32.93401,-60.65302,31.6,34.6
20211011_191326,0.730,-1.123,9.849,0.030,-0.039,-0.014,31.8,-36.131,16.331,-55.988,5.0,-32.93401,-60.65302,31.6,34.6
20211011_191326,-0.063,-2.487,9.506,0.003,-0.053,-0.054,22.0,-36.131,15.844,-58.331,5.0,-32.93406,-60.65293,32.6,34.3
20211011_191327,1.139,-2.173,9.554,0.039,-0.007,-0.009,19.5,-38.869,16.538,-57.638,5.0,-32.93406,-60.65293,32.6,34.3
20211011_191327,0.121,-2.676,9.212,0.040,0.000,-0.013,15.2,-40.275,15.281,-56.513,5.0,-32.93407,-60.65284,33.3,33.1
20211011_191328,1.017,-1.651,8.275,-0.043,0.038,0.038,15.2,-39.019,16.688,-57.788,5.0,-32.93407,-60.65284,33.3,33.1
20211011_191328,-0.279,-2.221,10.460,-0.019,0.005,0.015,20.1,-36.019,12.694,-55.219,5.0,-32.93410,-60.65276,32.4,29.2
20211011_191329,0.202,-1.421,10.194,-0.013,-0.013,0.036,27.1,-39.019,16.369,-60.581,5.0,-32.93410,-60.65276,32.4,29.2
20211011_191329,1.113,-2.166,9.331,-0.001,-0.066,0.007,30.4,-37.744,17.306,-57.675,5.0,-32.93412,-60.65270,31.4,25.1
20211011_191330,0.229,-2.058,9.444,-0.011,0.002,-0.046,30.4,-39.975,14.813,-56.981,5.0,-32.93412,-60.65270,31.4,25.1
20211011_191330,0.236,-3.550,10.237,0.046,-0.023,-0.041,30.4,-38.344,18.263,-57.806,5.0,-32.93414,-60.65263,33.4,23.5
20211011_191331,0.665,-3.972,9.908,-0.018,0.001,-0.005,27.6,-38.831,15.263,-57.319,5.0,-32.93414,-60.65263,33.4,23.5
20211011_191331,0.739,-3.692,9.485,-0.004,-0.013,-0.010,27.6,-37.575,16.350,-55.969,5.0,-32.93414,-60.65257,33.2,19.4
20211011_191332,0.691,-2.473,9.367,0.009,-0.005,-0.021,27.6,-35.194,18.825,-55.406,5.0,-32.93414,-60.65257,33.2,19.4
20211011_191332,0.548,-2.535,9.382,-0.004,-0.007,-0.007,27.6,-36.450,17.438,-56.306,5.0,-32.93415,-60.65251,34.1,18.1
20211011_191333,0.557,-1.744,9.796,0.004,0.001,-0.010,27.6,-35.888,17.588,-56.944,5.0,-32.93415,-60.65251,34.1,18.1
20211011_191333,0.567,-1.835,9.671,-0.001,0.001,-0.006,27.6,-37.875,17.138,-55.950,5.0,-32.93415,-60.65250,34.9,4.8
20211011_191334,0.629,-2.352,9.554,-0.003,0.002,0.000,30.7,-37.031,17.288,-57.694,5.0,-32.93415,-60.65250,34.9,4.8
20211011_191334,0.540,-1.001,9.671,0.001,0.001,-0.001,34.3,-35.063,18.994,-57.581,5.0,-32.93416,-60.65250,35.1,2.6
20211011_191335,0.540,-1.109,9.681,-0.001,0.001,0.001,34.3,-36.844,16.331,-56.288,5.0,-32.93417,-60.65251,32.8,1.5
20211011_191335,0.545,-1.092,9.703,-0.001,0.001,-0.001,34.3,-36.338,18.056,-56.156,5.0,-32.93417,-60.65251,32.8,1.5
20211011_191336,0.552,-1.085,9.549,-0.002,-0.001,-0.000,34.3,-37.181,17.756,-57.844,5.0,-32.93416,-60.65250,32.7,2.8
20211011_191336,0.552,-1.078,9.564,0.001,0.000,0.000,34.3,-36.188,17.738,-57.544,5.0,-32.93416,-60.65250,32.7,2.8
20211011_191337,0.533,-1.126,9.652,-0.002,0.002,0.000,38.1,-35.456,17.419,-56.794,5.0,-32.93417,-60.65249,33.1,0.9
20211011_191337,0.579,-1.109,9.633,-0.001,-0.002,-0.000,38.1,-37.050,18.075,-57.375,5.0,-32.93417,-60.65249,33.1,0.9
20211011_191338,0.531,-1.143,9.722,-0.001,-0.001,0.000,38.1,-36.619,18.075,-54.581,5.0,-32.93416,-60.65249,33.9,0.8
20211011_191338,0.600,-1.104,9.561,-0.000,-0.001,-0.001,38.1,-36.169,17.438,-57.075,5.0,-32.93416,-60.65249,33.9,0.8
20211011_191339,0.509,-1.169,9.772,-0.001,-0.000,0.001,38.1,-37.294,16.500,-56.588,5.0,-32.93416,-60.65249,34.3,0.6
20211011_191339,0.536,-1.107,9.628,-0.001,-0.000,-0.000,38.1,-36.169,17.738,-56.775,5.0,-32.93416,-60.65249,34.3,0.6
20211011_191340,0.538,-1.085,9.590,-0.000,0.000,0.001,38.1,-35.194,18.356,-56.944,5.0,-32.93416,-60.65248,35.7,2.4
20211011_191340,0.593,-1.150,9.530,-0.000,0.001,0.000,38.1,-36.188,18.225,-57.863,5.0,-32.93416,-60.65248,35.7,2.4
20211011_191341,0.526,-1.159,9.722,0.001,0.000,0.000,38.1,-37.013,16.819,-59.231,5.0,-32.93416,-60.65248,33.7,1.3
20211011_191341,0.555,-1.162,9.767,0.000,0.001,-0.000,38.1,-37.200,18.244,-55.969,5.0,-32.93416,-60.65248,33.7,1.3
20211011_191342,0.533,-1.159,9.786,-0.001,-0.000,0.001,38.1,-37.050,18.075,-57.375,5.0,-32.93416,-60.65247,33.8,0.0
20211011_191342,0.567,-1.181,9.767,0.000,-0.001,-0.000,38.1,-35.756,18.206,-57.563,5.0,-32.93416,-60.65247,33.8,0.0
20211011_191343,0.550,-1.119,9.724,-0.000,0.002,0.000,38.1,-35.719,16.631,-58.331,5.0,-32.93416,-60.65248,32.2,0.0
20211011_191343,0.536,-1.123,9.703,-0.000,-0.000,-0.001,38.1,-36.825,15.075,-57.056,5.0,-32.93416,-60.65248,32.2,0.0
20211011_191344,0.560,-1.080,9.655,-0.001,-0.000,0.000,38.1,-37.913,18.244,-57.038,5.0,-32.93416,-60.65248,31.6,1.3
20211011_191344,0.531,-1.109,9.667,-0.001,0.001,-0.000,38.1,-36.263,15.694,-56.606,5.0,-32.93416,-60.65248,31.6,1.3
20211011_191345,0.545,-1.095,9.669,0.001,0.000,-0.000,38.1,-36.169,17.738,-56.775,5.0,-32.93416,-60.65249,30.9,0.0
20211011_191345,0.574,-1.083,9.592,0.001,0.000,0.000,38.1,-36.619,18.075,-57.694,5.0,-32.93416,-60.65249,30.9,0.0
20211011_191346,0.552,-1.100,9.590,0.000,0.001,0.000,38.1,-36.450,17.438,-56.775,5.0,-32.93416,-60.65250,30.7,0.0
20211011_191347,0.545,-1.119,9.722,-0.001,0.000,0.001,38.1,-34.969,15.506,-56.025,5.0,-32.93416,-60.65250,30.7,0.0
20211011_191347,0.557,-1.138,9.789,-0.001,-0.001,-0.000,38.1,-36.263,16.013,-57.694,5.0,-32.93416,-60.65250,30.7,0.0
20211011_191348,0.536,-1.114,9.698,-0.000,-0.000,0.000,38.1,-36.619,18.394,-56.925,5.0,-32.93416,-60.65250,30.7,0.0
20211011_191348,0.552,-1.071,9.559,-0.000,0.001,-0.001,38.1,-36.169,17.438,-56.306,5.0,-32.93416,-60.65250,31.0,0.0
20211011_191349,0.562,-1.143,9.652,0.000,0.002,-0.001,38.1,-35.531,15.206,-57.413,5.0,-32.93416,-60.65250,31.0,0.0
20211011_191349,0.543,-1.155,9.693,0.002,-0.001,0.000,38.1,-35.625,18.056,-58.500,5.0,-32.93417,-60.65250,30.5,0.0
20211011_191350,0.543,-1.159,9.772,-0.001,0.000,0.000,38.1,-35.888,17.269,-58.950,5.0,-32.93417,-60.65250,30.5,0.0
20211011_191350,0.545,-1.143,9.717,0.001,-0.001,-0.000,38.1,-37.125,15.544,-57.056,5.0,-32.93417,-60.65250,29.9,0.0
20211011_191351,0.550,-1.083,9.542,0.001,-0.002,-0.001,38.1,-36.544,16.013,-55.050,5.0,-32.93417,-60.65250,29.9,0.0
20211011_191351,0.545,-1.100,9.621,0.002,0.000,-0.000,38.1,-36.338,18.375,-57.394,5.0,-32.93417,-60.65250,29.1,0.0
20211011_191352,0.552,-1.157,9.714,-0.000,0.001,0.001,38.1,-37.013,16.819,-56.138,5.0,-32.93417,-60.65250,29.1,0.0
20211011_191352,0.509,-1.181,9.767,-0.000,-0.000,-0.000,38.1,-37.594,12.244,-55.013,5.0,-32.93417,-60.65250,28.9,0.0
20211011_191353,0.540,-1.140,9.784,0.000,0.000,-0.000,38.1,-36.150,16.331,-59.100,5.0,-32.93417,-60.65250,28.9,0.0
20211011_191353,0.533,-1.097,9.714,0.000,0.000,-0.000,38.1,-35.813,14.906,-56.925,5.0,-32.93417,-60.65250,28.5,0.0
20211011_191354,0.567,-1.073,9.614,0.001,0.001,0.000,38.1,-38.438,16.519,-56.569,5.0,-32.93417,-60.65250,28.5,0.0
20211011_191354,0.564,-1.071,9.583,-0.000,-0.002,-0.001,38.1,-35.419,16.631,-57.094,5.0,-32.93417,-60.65250,28.0,0.0
20211011_191355,0.596,-1.078,9.592,0.003,-0.001,0.002,38.1,-36.300,16.800,-57.694,5.0,-32.93417,-60.65250,28.0,0.0
20211011_191355,0.529,-0.994,9.485,0.002,0.001,0.000,34.4,-36.375,15.056,-56.756,5.0,-32.93417,-60.65250,28.6,0.0
20211011_191356,0.433,0.177,9.889,0.001,-0.005,-0.002,34.4,-37.594,17.138,-56.738,5.0,-32.93417,-60.65250,28.6,0.0
20211011_191356,0.598,0.922,9.822,0.013,-0.018,-0.006,34.4,-36.638,18.394,-57.694,5.0,-32.93417,-60.65250,28.9,0.0
20211011_191357,0.588,-1.001,9.726,-0.044,0.008,0.002,34.4,-37.631,18.563,-57.825,5.0,-32.93417,-60.65250,28.9,0.0
20211011_191357,0.957,-0.189,9.533,-0.027,-0.009,-0.006,38.3,-37.219,18.244,-64.519,5.0,-32.93417,-60.65250,28.9,0.0
20211011_191358,0.260,-0.432,9.798,-0.022,-0.046,-0.005,38.3,-36.169,16.650,-65.625,5.0,-32.93417,-60.65250,28.9,0.0
20211011_191358,1.216,-1.608,9.944,0.016,0.069,0.013,38.3,-38.400,14.944,-62.306,5.0,-32.93417,-60.65250,28.9,0.0
20211011_191359,0.157,-1.298,8.361,-0.034,0.053,0.023,38.3,-36.094,14.269,-62.513,5.0,-32.93417,-60.65250,28.9,0.0
20211011_191359,0.394,-0.894,10.306,-0.034,0.013,0.022,38.3,-37.088,14.288,-58.294,5.0,-32.93417,-60.65249,28.4,0.0
20211011_191400,0.713,0.658,8.969,0.048,0.013,0.009,38.3,-40.219,13.875,-56.513,5.0,-32.93417,-60.65249,28.4,0.0
20211011_191400,-0.344,-0.290,10.852,-0.027,-0.032,-0.031,38.3,-39.825,14.963,-55.744,5.0,-32.93417,-60.65249,27.4,0.0
20211011_191401,0.044,0.134,10.601,0.097,0.011,-0.012,38.3,-39.806,14.175,-55.744,5.0,-32.93417,-60.65249,27.4,0.0
20211011_191401,-0.119,-0.714,10.970,-0.099,-0.011,-0.033,38.3,-39.244,14.794,-52.500,5.0,-32.93417,-60.65244,27.9,12.5
20211011_191402,1.067,-0.376,10.539,-0.075,0.016,-0.027,38.3,-39.994,15.600,-56.213,5.0,-32.93417,-60.65244,27.9,12.5
20211011_191402,0.289,0.249,9.037,0.010,0.042,-0.039,38.3,-38.513,14.306,-55.463,5.0,-32.93420,-60.65236,30.6,18.4
20211011_191403,0.207,-0.388,10.936,-0.025,0.001,-0.002,38.3,-40.481,12.300,-61.163,5.0,-32.93420,-60.65236,30.6,18.4
20211011_191403,0.682,-1.277,10.469,-0.001,-0.009,-0.005,34.8,-36.975,16.013,-55.350,5.0,-32.93422,-60.65229,30.3,21.4
20211011_191404,-0.236,-1.328,9.568,-0.065,0.005,0.004,34.8,-36.244,14.906,-62.663,5.0,-32.93422,-60.65229,30.3,21.4
20211011_191404,0.085,-0.700,10.354,0.003,0.011,0.017,34.8,-39.731,16.388,-59.025,5.0,-32.93424,-60.65223,32.0,23.3
20211011_191405,0.013,-0.290,9.537,-0.015,-0.023,0.012,31.0,-39.281,15.581,-58.556,5.0,-32.93424,-60.65223,32.0,23.3
20211011_191405,-0.080,-0.712,8.763,0.017,0.043,0.013,23.6,-39.638,13.219,-58.556,5.0,-32.93427,-60.65217,29.1,24.3
20211011_191406,0.279,-0.958,9.746,0.050,0.006,0.000,17.8,-39.656,14.325,-57.000,5.0,-32.93427,-60.65217,29.1,24.3
20211011_191406,0.461,-1.500,9.480,0.012,0.017,0.029,12.2,-38.081,13.838,-59.981,5.0,-32.93428,-60.65210,29.2,24.4
20211011_191407,0.758,-1.555,10.009,0.031,-0.030,-0.003,9.6,-39.975,15.131,-58.538,5.0,-32.93428,-60.65210,29.2,24.4
20211011_191407,0.493,-2.407,9.810,0.072,0.005,-0.011,6.8,-41.494,17.831,-55.406,5.0,-32.93429,-60.65201,29.0,25.1
20211011_191408,0.497,-1.169,9.310,0.011,0.009,-0.006,4.9,-40.013,15.919,-58.538,5.0,-32.93429,-60.65201,29.0,25.1
20211011_191408,0.311,-1.431,9.918,0.012,-0.014,0.000,2.8,-37.125,15.563,-60.938,5.0,-32.93430,-60.65193,30.0,25.9
20211011_191409,0.452,-1.524,9.695,-0.029,-0.034,0.005,3.2,-42.863,15.188,-60.806,5.0,-32.93430,-60.65193,30.0,25.9
20211011_191409,0.299,-1.864,9.849,0.004,0.008,0.004,4.1,-39.619,17.644,-55.763,5.0,-32.93431,-60.65185,30.8,24.6
20211011_191410,0.339,-1.723,9.731,0.014,-0.014,0.001,5.2,-41.081,18.469,-58.369,5.0,-32.93431,-60.65185,30.8,24.6
20211011_191410,0.253,-1.322,8.756,0.002,0.009,0.005,8.2,-39.281,15.900,-56.231,5.0,-32.93432,-60.65181,37.8,20.7
20211011_191411,0.399,-1.804,9.499,0.036,0.034,0.013,15.0,-41.288,15.788,-54.938,5.0,-32.93432,-60.65181,37.8,20.7
20211011_191411,0.373,-1.443,9.731,0.017,0.015,0.004,22.7,-41.044,17.363,-56.513,5.0,-32.93434,-60.65175,39.1,18.3
20211011_191412,-0.056,-1.933,9.971,-0.009,0.025,0.002,29.1,-41.719,15.788,-57.263,5.0,-32.93434,-60.65175,39.1,18.3
20211011_191412,0.663,-1.641,10.469,0.021,-0.012,0.007,29.1,-40.631,13.556,-52.781,5.0,-32.93435,-60.65169,39.8,16.1
20211011_191413,0.361,-1.663,10.247,-0.008,-0.087,-0.023,25.9,-49.481,16.556,-55.219,5.0,-32.93435,-60.65169,39.8,16.1
20211011_191413,-0.001,-1.445,9.990,-0.005,-0.045,-0.004,20.1,-42.056,12.788,-58.950,5.0,-32.93436,-60.65163,39.1,17.5
20211011_191414,0.207,-1.476,9.880,0.016,0.019,-0.008,20.1,-41.869,15.956,-56.644,5.0,-32.93436,-60.65163,39.1,17.5
20211011_191414,-0.059,-0.503,10.071,0.028,0.023,0.003,20.1,-40.763,17.194,-57.750,5.0,-32.93438,-60.65159,39.4,16.8
20211011_191415,0.742,-0.884,9.801,0.015,0.015,0.015,22.4,-44.156,15.356,-58.763,5.0,-32.93438,-60.65159,39.4,16.8
20211011_191415,0.347,-1.162,9.592,-0.031,0.008,0.006,22.4,-41.250,10.088,-55.406,5.0,-32.93438,-60.65152,40.0,18.3
20211011_191416,0.675,-1.756,9.623,-0.014,-0.019,0.002,20.0,-40.519,14.494,-52.631,5.0,-32.93438,-60.65152,40.0,18.3
20211011_191416,0.426,-1.435,9.753,-0.001,-0.016,0.010,12.9,-41.381,14.831,-50.119,5.0,-32.93440,-60.65146,39.8,17.3
20211011_191417,0.512,-1.560,9.765,0.030,0.032,0.008,7.6,-42.169,17.213,-47.006,5.0,-32.93440,-60.65146,39.8,17.3
20211011_191417,0.371,-1.773,9.793,-0.018,-0.026,0.012,6.0,-39.319,17.794,-52.500,5.0,-32.93440,-60.65140,40.9,15.6
20211011_191418,0.660,-1.488,10.052,-0.015,0.064,0.018,6.3,-39.750,17.494,-56.681,5.0,-32.93440,-60.65140,40.9,15.6
20211011_191418,0.531,-1.763,9.607,0.009,-0.005,0.007,8.5,-40.575,15.769,-56.044,5.0,-32.93441,-60.65136,40.8,13.8
20211011_191419,0.646,-2.213,9.540,0.012,-0.030,0.007,14.0,-41.719,15.788,-56.494,5.0,-32.93441,-60.65136,40.8,13.8
20211011_191419,0.976,-1.936,9.382,0.003,0.015,0.018,18.0,-41.869,15.956,-56.944,5.0,-32.93443,-60.65133,42.1,9.2
20211011_191420,0.603,-1.993,9.583,0.016,-0.004,0.005,22.9,-42.150,15.956,-55.388,5.0,-32.93443,-60.65133,42.1,9.2
20211011_191420,0.660,-1.969,9.372,0.003,-0.010,0.001,25.6,-41.419,15.150,-56.644,5.0,-32.93441,-60.65130,40.2,5.3
20211011_191421,0.545,-1.574,9.530,0.004,-0.008,-0.000,28.6,-42.038,16.894,-55.238,5.0,-32.93441,-60.65130,40.2,5.3
20211011_191421,0.608,-1.414,9.468,0.005,-0.012,0.007,31.9,-40.275,15.769,-55.275,5.0,-32.93441,-60.65129,39.8,1.8
20211011_191422,0.481,-1.720,9.722,0.000,-0.002,0.001,31.9,-39.994,15.600,-55.913,5.0,-32.93441,-60.65129,39.8,1.8
20211011_191422,0.461,-0.791,9.849,0.012,-0.000,0.001,31.9,-41.438,15.938,-54.788,5.0,-32.93440,-60.65128,38.4,1.3
20211011_191423,0.524,-0.994,9.616,-0.001,-0.001,-0.000,31.9,-40.463,17.194,-55.125,5.0,-32.93440,-60.65128,38.4,1.3
20211011_191423,0.507,-0.930,9.561,-0.000,-0.001,-0.001,31.9,-39.563,16.069,-54.975,5.0,-32.93441,-60.65127,38.5,0.7
20211011_191424,0.521,-0.965,9.676,-0.001,-0.002,0.001,31.9,-41.288,15.788,-56.025,5.0,-32.93441,-60.65127,38.5,0.7
20211011_191424,0.512,-0.963,9.628,-0.001,-0.001,0.001,31.9,-40.275,15.769,-54.506,5.0,-32.93440,-60.65126,36.6,0.9
20211011_191425,0.533,-1.004,9.604,-0.000,0.000,0.000,31.9,-42.131,15.169,-55.856,5.0,-32.93440,-60.65126,36.6,0.9
20211011_191425,0.497,-0.961,9.595,-0.001,-0.001,0.001,31.9,-41.288,15.788,-55.725,5.0,-32.93439,-60.65125,36.7,0.8
20211011_191426,0.521,-0.963,9.600,-0.001,-0.002,-0.001,31.9,-42.863,15.656,-55.069,5.0,-32.93439,-60.65125,36.7,0.8
20211011_191426,0.519,-0.977,9.635,0.000,0.000,-0.006,31.9,-42.563,15.169,-56.156,5.0,-32.93439,-60.65126,35.9,0.7
20211011_191427,0.526,-0.980,9.714,-0.000,0.003,0.003,31.9,-40.313,16.875,-55.275,5.0,-32.93439,-60.65126,35.9,0.7
20211011_191427,0.538,-0.997,9.803,-0.002,0.001,0.001,31.9,-41.475,17.513,-54.788,5.0,-32.93440,-60.65125,38.8,0.0
20211011_191428,0.488,-0.992,9.765,-0.001,-0.002,-0.000,31.9,-40.706,15.619,-55.106,5.0,-32.93440,-60.65125,38.8,0.0
20211011_191428,0.517,-0.963,9.748,-0.001,-0.001,-0.000,31.9,-41.250,14.981,-55.256,5.0,-32.93440,-60.65126,38.8,0.0
20211011_191429,0.500,-1.009,9.772,-0.000,-0.001,-0.000,31.9,-40.613,17.663,-54.488,5.0,-32.93440,-60.65126,38.8,0.0
20211011_191429,0.519,-1.018,9.801,-0.000,0.001,-0.000,31.9,-40.406,15.600,-54.038,5.0,-32.93440,-60.65126,37.9,0.0
20211011_191430,0.505,-1.016,9.784,0.000,0.002,0.002,31.9,-41.288,15.788,-55.725,5.0,-32.93440,-60.65126,37.9,0.0
20211011_191430,0.545,-1.023,9.743,0.001,0.001,-0.000,31.9,-40.706,15.919,-55.106,5.0,-32.93440,-60.65126,37.0,0.0
20211011_191431,0.533,-1.023,9.652,-0.000,0.001,0.001,31.9,-42.600,16.425,-56.156,5.0,-32.93440,-60.65126,37.0,0.0
20211011_191431,0.466,-0.975,9.621,-0.000,-0.002,-0.001,31.9,-38.138,16.050,-56.100,5.0,-32.93441,-60.65126,37.0,0.0
20211011_191432,0.548,-0.958,9.659,0.000,0.004,0.001,31.9,-41.100,14.363,-55.875,5.0,-32.93441,-60.65126,37.0,0.0
20211011_191432,0.512,-0.944,9.602,-0.001,0.002,-0.000,31.9,-40.631,17.663,-56.044,5.0,-32.93441,-60.65125,36.5,0.0
20211011_191433,0.485,-0.910,9.635,-0.001,0.001,0.001,31.9,-41.325,16.894,-56.494,5.0,-32.93441,-60.65125,36.5,0.0
20211011_191433,0.500,-0.944,9.602,-0.000,-0.000,0.002,31.9,-41.888,16.744,-56.175,5.0,-32.93441,-60.65126,36.4,0.0
20211011_191434,0.469,-0.977,9.681,-0.000,-0.001,0.001,31.9,-41.869,15.956,-55.388,5.0,-32.93441,-60.65126,36.4,0.0
20211011_191434,0.478,-1.054,9.808,-0.000,-0.001,-0.000,31.9,-38.400,15.263,-56.569,5.0,-32.93441,-60.65125,35.5,0.0
20211011_191435,0.524,-0.968,9.722,0.000,-0.002,-0.001,31.9,-39.525,14.494,-55.294,5.0,-32.93441,-60.65125,35.5,0.0
20211011_191435,0.548,-0.937,9.619,-0.001,0.003,0.002,31.9,-39.300,16.369,-55.913,5.0,-32.93440,-60.65125,35.4,0.0
20211011_191436,0.502,-0.951,9.662,-0.001,-0.001,-0.000,31.9,-40.688,15.131,-55.106,5.0,-32.93440,-60.65125,35.4,0.0
20211011_191436,0.488,-1.011,9.719,-0.000,0.001,0.001,31.9,-42.788,13.275,-54.750,5.0,-32.93440,-60.65126,35.9,0.6
20211011_191437,0.461,-1.035,9.817,-0.002,-0.007,-0.004,31.9,-39.994,15.919,-57.000,5.0,-32.93440,-60.65126,35.9,0.6
20211011_191437,0.473,-0.925,9.573,-0.001,-0.004,-0.003,31.9,-41.513,18.619,-56.644,5.0,-32.93440,-60.65126,36.5,0.7
20211011_191438,0.490,-1.032,9.774,-0.000,0.002,0.002,31.9,-40.425,15.600,-56.213,5.0,-32.93440,-60.65126,36.5,0.7
20211011_191438,0.533,-0.975,9.667,-0.001,-0.002,-0.001,31.9,-41.006,16.088,-56.494,5.0,-32.93440,-60.65125,36.4,0.0
20211011_191439,0.512,-0.970,9.600,-0.001,-0.001,-0.000,31.9,-40.256,14.981,-58.388,5.0,-32.93440,-60.65125,36.4,0.0
20211011_191439,0.485,-1.001,9.662,0.000,0.001,0.001,31.9,-40.556,15.300,-56.513,5.0,-32.93439,-60.65125,36.4,0.0
20211011_191440,0.497,-1.028,9.815,0.001,-0.000,-0.001,31.9,-41.156,16.406,-54.788,5.0,-32.93439,-60.65124,35.8,0.0
20211011_191440,0.514,-0.937,9.623,-0.001,0.000,-0.001,31.9,-38.869,16.538,-57.338,5.0,-32.93439,-60.65124,35.8,0.0
20211011_191441,0.529,-1.021,9.789,-0.001,-0.001,-0.000,35.4,-42.131,15.169,-56.625,5.0,-32.93439,-60.65123,34.9,0.0
20211011_191441,0.493,-0.958,9.714,0.000,0.001,-0.001,35.4,-41.025,16.556,-56.494,5.0,-32.93439,-60.65123,34.9,0.0
20211011_191442,0.514,-0.949,9.691,0.000,-0.001,0.001,35.4,-41.156,15.938,-56.963,5.0,-32.93438,-60.65123,35.7,0.0
20211011_191442,0.538,-0.999,9.731,-0.001,-0.000,0.001,35.4,-39.694,15.600,-56.213,5.0,-32.93438,-60.65123,35.7,0.0
20211011_191443,0.505,-0.951,9.597,0.002,0.001,-0.000,35.4,-39.731,16.706,-56.231,5.0,-32.93438,-60.65123,35.7,0.0
20211011_191443,0.519,-0.973,9.760,-0.002,0.001,-0.001,35.4,-41.006,15.769,-56.494,5.0,-32.93438,-60.65123,35.7,0.0
20211011_191444,0.521,-1.016,9.722,0.001,-0.000,-0.001,35.4,-39.994,15.600,-56.213,5.0,-32.93438,-60.65123,35.7,0.0
20211011_191444,0.512,-1.025,9.815,0.000,0.003,0.001,35.4,-39.675,14.813,-56.213,5.0,-32.93438,-60.65123,35.7,0.0
20211011_191445,0.543,-1.006,9.777,-0.000,0.002,0.001,35.4,-40.969,14.981,-56.494,5.0,-32.93438,-60.65123,35.7,0.0
20211011_191446,0.514,-1.035,9.784,-0.001,0.000,-0.001,35.4,-40.425,15.600,-57.450,5.0,-32.93438,-60.65123,35.7,0.0
20211011_191446,0.493,-0.977,9.592,0.001,-0.001,-0.001,35.4,-40.238,14.175,-57.600,5.0,-32.93438,-60.65123,34.6,0.0
20211011_191447,0.517,-0.949,9.623,0.001,-0.000,0.001,35.4,-41.119,14.831,-56.963,5.0,-32.93438,-60.65123,34.6,0.0
20211011_191447,0.509,-0.932,9.609,0.000,0.001,0.001,35.4,-39.844,15.750,-56.063,5.0,-32.93438,-60.65123,34.6,0.0
20211011_191448,0.500,-1.006,9.741,-0.001,0.001,0.001,35.4,-41.138,15.619,-55.875,5.0,-32.93438,-60.65123,34.6,0.0
20211011_191448,0.488,-1.042,9.820,-0.001,0.003,0.001,35.4,-39.806,14.494,-57.619,5.0,-32.93438,-60.65123,34.6,0.0
20211011_191449,0.519,-0.968,9.693,0.000,0.000,-0.001,35.4,-39.131,15.750,-55.763,5.0,-32.93438,-60.65123,34.6,0.0
20211011_191449,0.502,-0.915,9.568,-0.001,0.002,-0.000,35.4,-41.850,15.150,-56.944,5.0,-32.93438,-60.65123,34.7,0.0
20211011_191450,0.490,-1.035,9.743,0.001,-0.001,-0.001,35.4,-38.831,15.263,-55.313,5.0,-32.93438,-60.65123,34.7,0.0
20211011_191450,0.485,-0.973,9.647,0.002,0.000,-0.001,35.4,-39.825,14.963,-55.744,5.0,-32.93438,-60.65123,34.8,0.0
20211011_191451,0.505,-0.997,9.703,-0.000,0.000,-0.000,35.4,-39.806,14.175,-58.088,5.0,-32.93438,-60.65123,34.8,0.0
20211011_191451,0.497,-0.949,9.643,0.002,0.001,0.001,35.4,-39.525,14.175,-58.088,5.0,-32.93438,-60.65123,34.9,0.0
20211011_191452,0.505,-1.035,9.851,0.000,0.002,-0.000,35.4,-39.825,14.963,-56.063,5.0,-32.93438,-60.65123,34.9,0.0
20211011_191452,0.543,-0.944,9.616,-0.000,-0.003,-0.001,35.4,-39.975,15.131,-56.681,5.0,-32.93438,-60.65123,34.9,0.0
20211011_191453,0.476,-0.999,9.714,0.001,0.002,-0.000,35.4,-39.975,15.131,-57.450,5.0,-32.93438,-60.65123,34.9,0.0
20211011_191453,0.483,-1.040,9.760,-0.001,0.003,0.003,35.4,-41.850,15.638,-56.644,5.0,-32.93438,-60.65123,35.0,0.0
20211011_191454,0.454,-1.028,9.762,-0.000,0.001,0.002,35.4,-40.256,15.281,-55.744,5.0,-32.93438,-60.65123,35.0,0.0
20211011_191454,0.531,-0.970,9.674,0.000,0.000,0.001,35.4,-40.406,15.131,-56.663,5.0,-32.93438,-60.65123,34.8,0.0
20211011_191455,0.514,-1.013,9.770,0.001,-0.002,-0.001,35.4,-39.675,14.813,-55.125,5.0,-32.93438,-60.65123,34.8,0.0
20211011_191455,0.540,-0.884,9.588,-0.002,0.002,0.001,35.4,-43.313,11.869,-55.200,5.0,-32.93438,-60.65123,34.8,0.0
20211011_191456,0.457,-1.090,9.920,0.000,-0.000,-0.001,35.4,-41.363,13.575,-56.644,5.0,-32.93438,-60.65123,34.8,0.0
20211011_191456,0.507,-1.006,9.717,-0.001,-0.000,-0.001,35.4,-41.831,15.150,-56.175,5.0,-32.93438,-60.65123,34.8,0.0
20211011_191457,0.550,-0.949,9.566,0.001,0.001,-0.000,35.4,-40.406,15.131,-56.981,5.0,-32.93438,-60.65123,34.8,0.0
20211011_191457,0.471,-0.975,9.707,0.000,0.001,-0.000,35.4,-41.306,16.575,-54.938,5.0,-32.93438,-60.65123,35.3,0.0
20211011_191458,0.490,-0.977,9.676,0.002,0.001,-0.001,35.4,-41.869,15.638,-58.181,5.0,-32.93438,-60.65123,35.3,0.0
20211011_191458,0.505,-0.985,9.621,-0.001,0.004,0.001,35.4,-39.713,15.600,-57.469,5.0,-32.93438,-60.65123,35.3,0.0
20211011_191459,0.476,-0.970,9.676,-0.001,0.003,0.001,31.2,-39.150,16.538,-56.081,5.0,-32.93438,-60.65123,35.3,0.0
20211011_191459,0.490,-1.028,9.846,-0.001,0.003,0.003,25.1,-39.788,13.388,-56.531,5.0,-32.93438,-60.65123,35.0,0.0
20211011_191500,0.509,-0.989,9.633,-0.001,0.003,0.002,25.1,-40.594,16.875,-57.281,5.0,-32.93438,-60.65123,35.0,0.0
20211011_191500,0.545,-1.112,9.724,0.002,0.004,0.002,25.1,-40.969,14.981,-55.256,5.0,-32.93438,-60.65123,35.3,0.0
20211011_191501,0.500,-0.879,9.518,-0.002,-0.000,0.001,27.9,-41.438,15.938,-55.406,5.0,-32.93438,-60.65123,35.3,0.0
20211011_191501,0.440,-0.353,9.415,0.010,0.000,0.001,27.9,-39.994,15.919,-55.913,5.0,-32.93438,-60.65123,35.2,0.0
20211011_191502,0.476,-0.408,9.731,-0.003,0.001,-0.000,27.9,-38.756,12.263,-60.431,5.0,-32.93438,-60.65123,35.2,0.0
20211011_191502,0.710,-0.136,10.004,-0.010,0.019,0.015,27.9,-39.638,13.538,-59.006,5.0,-32.93438,-60.65122,35.2,1.5
20211011_191503,0.514,0.120,9.671,0.007,-0.019,0.013,27.9,-40.988,15.300,-56.044,5.0,-32.93438,-60.65122,35.2,1.5
20211011_191503,0.768,0.627,10.028,0.015,-0.004,-0.001,27.9,-40.331,17.663,-55.275,5.0,-32.93438,-60.65121,35.1,4.8
20211011_191504,0.555,0.682,9.765,0.026,-0.035,-0.002,27.9,-40.275,15.281,-58.069,5.0,-32.93438,-60.65121,35.1,4.8
20211011_191504,0.840,0.500,9.377,-0.010,0.000,-0.016,27.9,-38.850,16.050,-55.313,5.0,-32.93439,-60.65119,35.1,8.7
20211011_191505,1.153,0.347,8.694,-0.058,0.103,-0.039,27.9,-39.075,13.856,-56.081,5.0,-32.93439,-60.65119,35.1,8.7
20211011_191505,1.096,-1.157,9.293,-0.114,0.061,0.022,27.9,-40.388,14.813,-56.213,5.0,-32.93439,-60.65116,35.2,10.7
20211011_191506,0.538,-0.781,9.913,0.065,-0.106,-0.007,27.9,-39.675,14.325,-57.469,5.0,-32.93439,-60.65116,35.2,10.7
20211011_191506,0.940,-0.628,9.188,-0.007,-0.076,-0.045,27.9,-39.656,14.325,-56.213,5.0,-32.93440,-60.65112,35.3,10.9
20211011_191507,0.485,0.718,9.523,0.005,-0.023,-0.036,27.9,-39.581,16.069,-58.406,5.0,-32.93440,-60.65112,35.3,10.9
20211011_191507,0.507,0.022,10.974,0.031,-0.023,-0.036,27.9,-39.938,14.025,-56.981,5.0,-32.93441,-60.65107,35.3,11.2
20211011_191508,0.512,0.069,9.499,-0.053,-0.075,-0.006,31.2,-39.900,12.750,-56.981,5.0,-32.93441,-60.65107,35.3,11.2
20211011_191508,0.375,-0.963,10.261,-0.056,0.020,0.023,31.2,-39.788,13.856,-56.531,5.0,-32.93442,-60.65101,35.2,10.8
20211011_191509,-0.439,-1.512,8.378,-0.121,0.012,-0.023,31.2,-38.363,14.156,-56.100,5.0,-32.93442,-60.65101,35.2,10.8
20211011_191509,-0.454,1.040,10.381,0.006,-0.003,-0.010,31.2,-39.713,15.919,-57.000,5.0,-32.93444,-60.65094,35.2,14.8
20211011_191510,0.864,0.505,8.999,0.037,0.024,0.031,28.1,-40.238,14.494,-54.188,5.0,-32.93444,-60.65094,35.2,14.8
20211011_191510,-0.236,-1.298,9.714,-0.000,-0.027,0.011,21.4,-38.831,15.263,-56.550,5.0,-32.93446,-60.65088,35.3,14.1
20211011_191511,0.466,-1.692,10.678,0.023,0.013,0.010,19.2,-38.494,18.413,-58.125,5.0,-32.93446,-60.65088,35.3,14.1
20211011_191511,-0.231,-0.539,9.583,-0.035,-0.017,0.039,19.2,-40.969,14.513,-57.281,5.0,-32.93448,-60.65083,35.0,15.8
20211011_191512,0.421,-0.007,9.729,-0.010,-0.040,-0.007,27.6,-39.994,15.919,-57.450,5.0,-32.93448,-60.65083,35.0,15.8
20211011_191512,0.375,0.014,9.837,-0.006,-0.011,0.008,21.7,-40.631,17.663,-57.600,5.0,-32.93448,-60.65078,35.0,0.0
20211011_191513,1.738,-0.551,7.709,-0.063,-0.000,-0.013,19.0,-40.556,15.300,-56.044,5.0,-32.93448,-60.65078,35.0,0.0
20211011_191513,0.854,-0.683,9.999,0.018,0.030,-0.017,17.1,-41.194,17.513,-56.663,5.0,-32.93452,-60.65064,35.2,34.8
20211011_191514,1.079,-1.100,9.542,0.003,0.019,0.002,17.1,-42.731,16.125,-57.244,5.0,-32.93452,-60.65064,35.2,34.8
20211011_191514,0.464,-1.258,9.509,0.001,0.005,-0.004,22.6,-39.244,14.325,-57.469,5.0,-32.93454,-60.65050,34.2,36.8
20211011_191515,0.078,-1.176,9.870,0.028,-0.019,0.005,20.2,-38.531,14.794,-55.463,5.0,-32.93454,-60.65050,34.2,36.8
20211011_191515,-0.133,-1.735,11.015,0.008,0.022,0.028,16.0,-38.306,17.156,-56.719,5.0,-32.93456,-60.65040,34.1,36.4
20211011_191516,0.188,-1.016,9.782,0.008,-0.014,-0.001,16.1,-41.119,15.150,-56.194,5.0,-32.93456,-60.65040,34.1,36.4
20211011_191516,0.078,-1.255,10.081,-0.004,-0.044,-0.021,13.0,-42.413,15.319,-52.594,5.0,-32.93459,-60.65029,33.8,36.0
20211011_191517,0.936,-0.980,8.984,0.009,-0.046,-0.011,11.8,-37.219,13.819,-57.675,5.0,-32.93459,-60.65029,33.8,36.0
20211011_191517,0.478,-1.279,9.528,-0.005,0.016,-0.005,10.5,-40.238,14.494,-56.513,5.0,-32.93463,-60.65021,34.4,34.8
20211011_191518,0.581,-1.414,9.389,-0.008,0.024,0.010,10.5,-41.306,16.575,-56.813,5.0,-32.93463,-60.65021,34.4,34.8
20211011_191518,0.588,-1.598,9.152,0.013,0.037,0.031,10.5,-39.244,14.794,-55.913,5.0,-32.93464,-60.65016,33.9,32.3
20211011_191519,1.218,-2.079,9.578,-0.010,0.042,-0.001,10.5,-41.456,16.725,-55.875,5.0,-32.93464,-60.65016,33.9,32.3
20211011_191519,0.245,-2.576,9.935,-0.010,-0.024,-0.009,8.2,-38.588,16.688,-54.844,5.0,-32.93467,-60.65005,33.2,31.2
20211011_191520,0.694,-2.650,9.449,-0.002,0.022,0.009,7.4,-41.100,14.363,-55.875,5.0,-32.93467,-60.65005,33.2,31.2
20211011_191520,0.948,-2.892,9.295,0.002,0.034,0.013,8.3,-40.688,14.831,-58.519,5.0,-32.93468,-60.64998,33.5,25.7
20211011_191521,0.121,-3.437,10.287,0.001,-0.013,-0.015,22.2,-39.844,15.750,-55.744,5.0,-32.93468,-60.64998,33.5,25.7
20211011_191521,0.567,-2.585,9.911,0.028,0.041,0.006,22.2,-40.594,16.556,-57.281,5.0,-32.93470,-60.64992,33.7,19.1
20211011_191522,0.713,-1.672,10.819,-0.030,-0.019,-0.004,22.2,-39.994,15.919,-57.000,5.0,-32.93470,-60.64992,33.7,19.1
20211011_191522,0.679,-0.286,9.592,0.038,-0.028,-0.009,24.8,-39.825,14.494,-58.088,5.0,-32.93475,-60.64989,34.8,14.4
20211011_191523,0.423,0.735,10.110,0.026,-0.027,-0.009,24.8,-38.850,15.731,-57.638,5.0,-32.93475,-60.64989,34.8,14.4
20211011_191523,0.236,0.536,9.777,0.008,-0.007,-0.004,24.8,-39.994,15.600,-56.681,5.0,-32.93474,-60.64983,35.0,15.0
20211011_191524,0.684,0.208,9.389,0.071,-0.012,-0.000,24.8,-40.706,15.938,-56.194,5.0,-32.93474,-60.64983,35.0,15.0
20211011_191524,0.485,-0.000,9.183,-0.106,0.047,0.017,24.8,-38.381,14.475,-56.569,5.0,-32.93475,-60.64976,35.4,20.6
20211011_191525,-0.559,-0.915,9.861,-0.038,0.039,0.041,24.8,-41.381,14.363,-55.875,5.0,-32.93475,-60.64976,35.4,20.6
20211011_191525,-0.013,-1.612,9.458,0.074,0.007,0.010,24.8,-39.113,15.263,-56.550,5.0,-32.93473,-60.64965,33.5,24.9
20211011_191526,0.224,-0.649,10.122,0.045,-0.028,0.001,28.6,-40.688,15.131,-55.106,5.0,-32.93473,-60.64965,33.5,24.9
20211011_191526,0.020,-1.018,9.765,0.050,-0.042,-0.033,38.9,-38.138,16.050,-58.425,5.0,-32.93474,-60.64958,32.7,25.3
20211011_191527,0.207,-1.157,9.497,0.144,-0.144,-0.028,28.5,-41.869,16.425,-56.175,5.0,-32.93474,-60.64958,32.7,25.3
20211011_191527,0.430,-0.942,8.967,0.008,-0.024,0.004,19.8,-39.956,14.813,-55.894,5.0,-32.93475,-60.64951,31.4,25.6
20211011_191528,0.399,-1.270,9.597,-0.008,-0.031,-0.004,17.6,-39.600,16.856,-55.763,5.0,-32.93475,-60.64951,31.4,25.6
20211011_191528,0.825,-0.508,9.394,-0.003,0.041,0.007,15.9,-41.869,16.425,-56.175,5.0,-32.93475,-60.64942,33.3,25.3
20211011_191529,0.785,-0.764,10.031,0.046,-0.004,0.028,14.1,-41.269,15.300,-57.263,5.0,-32.93475,-60.64942,33.3,25.3
20211011_191529,0.928,-0.257,9.808,0.008,0.025,0.003,12.6,-39.619,17.325,-57.319,5.0,-32.93476,-60.64933,32.0,26.2
20211011_191530,0.967,0.148,8.823,0.003,0.039,0.002,42.7,-43.856,15.356,-56.438,5.0,-32.93476,-60.64933,32.0,26.2
20211011_191530,0.435,-0.434,8.809,-0.013,0.043,-0.013,29.0,-40.969,14.513,-56.813,5.0,-32.93478,-60.64925,31.6,29.0
20211011_191531,0.598,-0.535,9.571,-0.002,0.042,0.002,22.8,-41.138,15.619,-56.663,5.0,-32.93478,-60.64925,31.6,29.0
20211011_191531,0.562,-0.707,9.382,0.006,0.000,0.006,20.5,-42.169,16.425,-55.856,5.0,-32.93481,-60.64916,32.7,31.4
20211011_191532,0.368,-0.578,9.255,0.001,0.001,-0.005,20.5,-39.656,14.025,-57.469,5.0,-32.93483,-60.64907,31.7,32.2
20211011_191532,0.394,-1.279,9.841,-0.016,-0.024,-0.017,45.5,-39.994,15.919,-55.125,5.0,-32.93483,-60.64907,31.7,32.2
20211011_191533,0.433,-0.949,8.747,0.019,0.009,0.010,39.4,-42.356,13.425,-54.131,5.0,-32.93479,-60.64893,28.6,33.0
20211011_191533,0.512,-1.517,9.585,-0.016,-0.003,0.004,28.6,-39.675,14.813,-57.000,5.0,-32.93479,-60.64893,28.6,33.0
20211011_191534,0.490,-0.882,9.619,-0.009,0.029,0.014,23.3,-40.294,16.088,-55.744,5.0,-32.93481,-60.64883,27.5,33.4
20211011_191534,0.119,-0.932,9.585,0.015,-0.020,0.018,21.0,-40.519,14.494,-54.956,5.0,-32.93481,-60.64883,27.5,33.4
20211011_191535,-0.140,-0.829,9.281,0.015,-0.030,-0.006,18.9,-40.688,14.831,-56.194,5.0,-32.93483,-60.64874,27.1,33.8
20211011_191535,-0.001,-1.761,11.063,0.022,-0.005,-0.029,29.2,-39.713,15.919,-56.681,5.0,-32.93483,-60.64874,27.1,33.8
20211011_191536,0.313,-0.925,9.068,0.003,-0.018,-0.005,26.1,-39.956,14.344,-55.444,5.0,-32.93486,-60.64864,28.3,33.7
20211011_191536,1.218,-1.979,10.812,-0.017,0.058,0.010,20.9,-38.625,17.794,-57.019,5.0,-32.93486,-60.64864,28.3,33.7
20211011_191537,-0.188,-1.629,8.852,-0.051,-0.092,-0.014,18.6,-39.019,16.369,-59.025,5.0,-32.93490,-60.64855,30.3,32.5
20211011_191537,0.742,-2.053,9.295,-0.014,-0.011,0.007,16.7,-40.313,16.875,-56.831,5.0,-32.93490,-60.64855,30.3,32.5
20211011_191538,0.028,-2.858,9.499,0.016,0.089,0.121,13.2,-41.288,15.788,-56.813,5.0,-32.93492,-60.64850,25.5,26.1
20211011_191538,-0.693,-3.279,9.465,-0.014,-0.145,-0.050,10.6,-41.119,15.150,-52.463,5.0,-32.93492,-60.64850,25.5,26.1
20211011_191539,0.988,-3.174,9.628,-0.035,-0.045,-0.003,9.6,-40.369,14.025,-54.038,5.0,-32.93492,-60.64843,23.1,19.2
20211011_191539,0.299,-3.368,9.662,0.007,-0.018,-0.012,9.6,-41.663,14.213,-54.938,5.0,-32.93492,-60.64843,23.1,19.2
20211011_191540,0.123,-2.805,9.355,-0.011,0.005,-0.008,12.4,-40.519,14.194,-54.488,5.0,-32.93493,-60.64840,20.7,9.8
20211011_191540,-0.054,-1.262,9.382,0.003,0.012,-0.009,13.8,-39.806,14.494,-53.419,5.0,-32.93493,-60.64840,20.7,9.8
20211011_191541,-0.128,0.472,9.564,0.010,0.005,-0.001,13.8,-38.456,12.731,-51.750,5.0,-32.93493,-60.64837,24.0,7.6
20211011_191541,0.109,0.692,9.896,0.022,0.014,0.003,15.6,-39.225,14.325,-52.031,5.0,-32.93493,-60.64837,24.0,7.6
20211011_191542,0.344,0.764,9.925,0.014,0.015,0.002,15.6,-39.038,12.581,-54.206,5.0,-32.93494,-60.64832,23.6,12.9
20211011_191542,0.335,0.900,9.568,-0.009,0.016,-0.002,17.4,-39.488,13.856,-52.650,5.0,-32.93494,-60.64832,23.6,12.9
20211011_191543,0.130,0.932,9.336,-0.018,-0.031,0.003,17.4,-39.150,11.644,-54.056,5.0,-32.93495,-60.64827,23.8,18.7
20211011_191543,-0.308,0.864,10.215,0.013,-0.001,0.014,15.8,-38.963,14.794,-55.463,5.0,-32.93495,-60.64827,23.8,18.7
20211011_191544,-0.662,1.032,9.035,-0.009,-0.007,0.016,14.3,-39.900,12.750,-52.800,5.0,-32.93496,-60.64819,26.9,25.2
20211011_191544,-0.133,-1.119,9.803,0.007,-0.036,0.003,11.4,-40.631,13.556,-51.994,5.0,-32.93496,-60.64819,26.9,25.2
20211011_191545,-0.470,-1.102,9.705,0.011,-0.024,-0.003,11.4,-40.650,14.025,-51.225,5.0,-32.93500,-60.64811,26.7,27.7
20211011_191545,-0.085,-0.527,9.042,-0.041,-0.040,-0.009,10.1,-42.788,13.594,-52.725,5.0,-32.93500,-60.64811,26.7,27.7
20211011_191546,0.823,-0.590,10.141,-0.079,0.053,0.004,8.0,-40.444,11.813,-53.719,5.0,-32.93502,-60.64802,26.4,29.4
20211011_191547,-0.480,-1.047,10.740,-0.032,-0.073,-0.044,4.6,-42.075,14.063,-51.656,5.0,-32.93502,-60.64802,26.4,29.4
20211011_191547,0.368,0.053,9.904,-0.061,-0.001,-0.019,6.5,-40.875,11.813,-51.375,5.0,-32.93505,-60.64792,25.2,31.4
20211011_191548,0.171,-2.419,11.466,-0.025,0.015,-0.004,20.0,-40.350,14.025,-49.688,5.0,-32.93505,-60.64792,25.2,31.4
20211011_191548,-0.624,-1.337,10.881,-0.130,-0.002,-0.012,20.0,-41.363,14.044,-51.675,5.0,-32.93508,-60.64782,25.2,33.3
20211011_191549,0.308,-0.879,9.236,-0.072,-0.051,0.009,22.2,-39.750,13.069,-52.950,5.0,-32.93508,-60.64782,25.2,33.3
20211011_191549,0.361,-1.044,8.814,-0.081,0.074,0.023,22.2,-40.519,14.194,-54.188,5.0,-32.93511,-60.64774,24.9,32.9
20211011_191550,0.013,-0.925,10.326,-0.030,-0.013,0.010,22.2,-41.756,12.788,-51.975,5.0,-32.93511,-60.64774,24.9,32.9
20211011_191550,-0.833,-1.083,9.492,-0.011,-0.035,0.005,27.9,-41.288,11.663,-52.444,5.0,-32.93513,-60.64767,27.2,31.5
20211011_191551,-0.767,-1.167,9.983,-0.030,-0.015,-0.015,31.0,-39.919,14.025,-51.713,5.0,-32.93513,-60.64767,27.2,31.5
20211011_191551,0.214,-1.011,9.451,0.010,0.008,-0.015,27.9,-41.775,13.575,-50.888,5.0,-32.93511,-60.64752,30.2,32.6
20211011_191552,0.176,-1.219,9.233,0.008,0.002,-0.005,21.6,-41.663,14.513,-51.825,5.0,-32.93511,-60.64752,30.2,32.6
20211011_191552,-0.174,-1.310,9.686,-0.005,0.024,-0.006,19.4,-41.813,14.831,-51.975,5.0,-32.93513,-60.64742,30.7,31.9
20211011_191553,-0.221,-1.361,9.956,0.010,-0.013,-0.004,15.7,-41.025,12.450,-51.994,5.0,-32.93513,-60.64742,30.7,31.9
20211011_191553,-0.576,-1.605,9.717,-0.008,0.024,-0.002,13.8,-43.238,14.381,-53.194,5.0,-32.93514,-60.64733,31.6,30.3
20211011_191554,-0.040,-1.754,9.566,-0.016,0.002,-0.009,10.0,-43.069,13.444,-51.788,5.0,-32.93514,-60.64733,31.6,30.3
20211011_191554,-0.200,-2.326,9.485,-0.018,-0.001,-0.012,6.9,-40.650,14.025,-54.019,5.0,-32.93517,-60.64726,31.9,27.2
20211011_191555,-0.336,-1.890,8.914,0.013,-0.045,-0.023,6.2,-42.056,13.256,-51.975,5.0,-32.93517,-60.64726,31.9,27.2
20211011_191555,-0.317,-1.945,9.614,0.011,-0.008,-0.015,6.2,-41.813,14.363,-52.744,5.0,-32.93517,-60.64717,31.8,24.0
20211011_191556,-0.279,-2.803,9.427,-0.003,-0.017,-0.002,19.4,-42.638,13.425,-53.663,5.0,-32.93517,-60.64717,31.8,24.0
20211011_191556,-0.454,-2.717,9.336,0.008,-0.034,0.008,17.1,-41.213,13.406,-54.938,5.0,-32.93516,-60.64708,30.4,19.9
20211011_191557,-0.593,-2.762,10.215,0.003,-0.034,-0.004,15.4,-41.063,13.556,-53.550,5.0,-32.93516,-60.64708,30.4,19.9
20211011_191557,-0.154,-1.454,9.552,0.022,-0.002,-0.003,15.4,-42.038,12.469,-53.213,5.0,-32.93516,-60.64703,29.8,14.6
20211011_191558,-0.147,0.599,9.951,0.024,0.006,-0.004,15.4,-40.913,13.088,-52.931,5.0,-32.93516,-60.64703,29.8,14.6
20211011_191558,-0.779,0.108,9.911,0.008,-0.005,0.007,17.2,-42.506,13.594,-52.425,5.0,-32.93517,-60.64698,27.3,16.4
20211011_191559,0.095,0.194,9.523,0.024,-0.012,0.022,17.2,-41.194,13.088,-54.169,5.0,-32.93517,-60.64698,27.3,16.4
20211011_191559,-0.296,0.412,9.154,-0.006,0.012,0.027,17.2,-40.688,15.600,-51.694,5.0,-32.93518,-60.64691,28.2,20.7
20211011_191600,0.030,0.148,9.533,0.028,0.004,0.022,15.5,-41.663,14.513,-54.150,5.0,-32.93518,-60.64691,28.2,20.7
20211011_191600,0.315,0.029,9.856,0.003,-0.018,0.001,13.9,-41.644,13.894,-52.913,5.0,-32.93520,-60.64684,30.8,24.8
20211011_191601,0.404,-1.214,9.384,0.005,0.011,-0.017,12.6,-41.363,14.044,-51.675,5.0,-32.93520,-60.64684,30.8,24.8
20211011_191601,0.308,-0.103,9.872,0.017,-0.026,-0.071,17.4,-42.094,14.063,-52.744,5.0,-32.93521,-60.64677,33.8,25.2
20211011_191602,-0.068,0.117,9.566,0.034,0.002,-0.030,31.3,-42.806,14.381,-53.963,5.0,-32.93521,-60.64677,33.8,25.2
20211011_191602,0.308,-0.494,10.603,-0.016,-0.002,-0.008,21.9,-38.138,16.519,-53.006,5.0,-32.93521,-60.64667,34.5,28.1
20211011_191603,0.725,-0.228,9.628,-0.030,0.121,0.013,14.9,-38.175,13.200,-52.519,5.0,-32.93521,-60.64667,34.5,28.1
20211011_191603,-1.149,-0.465,10.701,0.014,0.063,0.002,13.4,-43.931,13.613,-50.831,5.0,-32.93524,-60.64659,34.4,30.6
20211011_191604,-0.341,-0.537,9.109,-0.028,0.041,0.009,13.4,-41.963,14.531,-52.125,5.0,-32.93524,-60.64659,34.4,30.6
20211011_191604,-0.255,-0.045,9.956,0.030,-0.024,-0.021,18.3,-43.781,13.444,-52.088,5.0,-32.93528,-60.64649,30.7,32.1
20211011_191605,-0.166,-0.829,9.760,-0.047,0.024,0.010,16.5,-44.063,13.144,-50.981,5.0,-32.93528,-60.64649,30.7,32.1
20211011_191605,0.248,-0.034,9.073,0.049,0.011,-0.005,14.7,-41.681,15.000,-52.913,5.0,-32.93529,-60.64640,30.1,32.6
20211011_191606,-0.186,-0.870,9.602,-0.019,0.034,0.022,23.4,-42.769,12.806,-53.194,5.0,-32.93529,-60.64640,30.1,32.6
20211011_191606,-0.267,-0.927,9.228,0.013,-0.045,-0.001,18.0,-40.463,12.281,-53.400,5.0,-32.93530,-60.64630,31.0,32.3
20211011_191607,0.773,-1.902,10.697,0.041,-0.011,0.042,14.2,-42.300,11.850,-52.575,5.0,-32.93530,-60.64630,31.0,32.3
20211011_191607,-0.310,-0.937,9.975,0.015,0.002,0.006,12.8,-42.319,12.638,-52.125,5.0,-32.93532,-60.64621,33.4,32.1
20211011_191608,-0.303,-1.591,10.579,-0.011,0.009,-0.013,12.8,-41.213,13.875,-51.375,5.0,-32.93532,-60.64621,33.4,32.1
20211011_191608,0.016,-1.279,9.659,-0.000,0.024,-0.008,21.5,-43.913,12.825,-51.919,5.0,-32.93532,-60.64611,34.2,31.1
20211011_191609,-0.291,-1.730,10.057,0.028,-0.043,-0.018,19.4,-41.344,13.575,-51.675,5.0,-32.93532,-60.64611,34.2,31.1
20211011_191609,-0.411,-1.402,9.470,-0.027,-0.026,-0.002,15.2,-41.081,14.344,-50.906,5.0,-32.93531,-60.64600,34.9,30.3
20211011_191610,-0.047,-1.603,9.420,-0.028,-0.004,0.008,13.6,-41.063,13.556,-53.550,5.0,-32.93531,-60.64600,34.9,30.3
20211011_191610,-0.674,-1.169,8.091,0.046,-0.043,-0.000,11.1,-41.944,13.894,-53.363,5.0,-32.93532,-60.64591,35.2,29.7
20211011_191611,-0.363,-1.833,9.789,-0.023,-0.043,-0.015,9.9,-41.419,15.619,-53.231,5.0,-32.93532,-60.64591,35.2,29.7
20211011_191611,-0.691,-3.162,9.961,-0.024,-0.053,-0.028,7.6,-41.419,15.938,-53.550,5.0,-32.93533,-60.64581,35.7,27.2
20211011_191612,-0.001,-2.614,9.837,-0.068,-0.050,-0.004,6.1,-41.644,13.894,-52.144,5.0,-32.93533,-60.64581,35.7,27.2
20211011_191612,-0.219,-2.980,9.003,0.038,-0.013,-0.021,6.1,-41.063,13.556,-53.550,5.0,-32.93535,-60.64574,35.1,20.4
20211011_191613,-0.403,-3.081,9.494,-0.028,0.007,-0.029,6.1,-43.238,14.081,-54.263,5.0,-32.93535,-60.64574,35.1,20.4
20211011_191613,-0.540,-2.166,9.829,-0.007,-0.002,-0.025,8.0,-42.731,11.700,-53.494,5.0,-32.93536,-60.64570,35.0,13.3
20211011_191614,0.725,-2.468,9.087,-0.007,0.030,0.013,9.3,-42.075,13.575,-51.656,5.0,-32.93536,-60.64570,35.0,13.3
20211011_191614,-0.013,-2.688,9.461,-0.001,0.041,-0.005,13.6,-42.656,13.913,-51.806,5.0,-32.93536,-60.64567,35.2,8.3
20211011_191615,-0.008,-1.794,9.647,0.001,-0.018,-0.003,15.3,-44.663,13.631,-52.369,5.0,-32.93536,-60.64567,35.2,8.3
20211011_191615,0.028,-1.229,9.710,0.004,0.001,-0.000,15.3,-43.144,15.806,-51.019,5.0,-32.93535,-60.64565,37.1,4.1
20211011_191616,0.481,-1.116,9.729,0.004,-0.038,-0.029,17.1,-42.656,14.213,-52.575,5.0,-32.93535,-60.64565,37.1,4.1
20211011_191616,0.006,-1.085,9.580,0.002,0.000,-0.001,17.1,-43.688,14.869,-52.406,5.0,-32.93538,-60.64565,38.4,1.9
20211011_191617,-0.016,-0.836,9.628,0.001,-0.001,0.001,19.2,-45.938,13.481,-51.731,5.0,-32.93538,-60.64565,38.4,1.9
20211011_191617,0.001,-0.872,9.734,-0.001,-0.000,-0.001,19.2,-43.200,12.806,-51.938,5.0,-32.93539,-60.64565,43.0,1.4
20211011_191618,-0.011,-0.860,9.791,0.000,-0.001,-0.000,19.2,-44.475,12.356,-52.069,5.0,-32.93539,-60.64565,43.0,1.4
20211011_191618,0.016,-0.903,9.851,0.000,0.001,0.001,19.2,-44.513,13.463,-52.538,5.0,-32.93538,-60.64565,42.8,1.8
20211011_191619,0.054,-0.321,9.607,0.010,0.001,0.001,21.3,-43.200,12.806,-51.938,5.0,-32.93538,-60.64565,42.8,1.8
20211011_191619,-0.042,0.345,9.590,0.005,0.007,-0.006,21.3,-43.069,13.444,-50.550,5.0,-32.93539,-60.64565,45.1,2.1
20211011_191620,0.047,0.802,9.616,-0.007,-0.013,-0.015,21.3,-43.969,14.400,-52.388,5.0,-32.93539,-60.64565,45.1,2.1
20211011_191620,-0.387,-0.177,9.894,-0.036,0.009,-0.003,21.3,-45.225,13.950,-50.494,5.0,-32.93542,-60.64563,47.2,6.2
20211011_191621,-0.849,0.168,9.760,-0.019,-0.045,-0.009,21.3,-44.438,11.569,-50.513,5.0,-32.93542,-60.64563,47.2,6.2
20211011_191621,-0.133,0.725,9.911,0.017,0.029,0.027,21.3,-43.069,13.913,-49.463,5.0,-32.93542,-60.64561,48.6,10.9
20211011_191622,-0.289,0.496,9.513,-0.009,0.027,0.021,21.3,-41.963,15.000,-52.594,5.0,-32.93542,-60.64561,48.6,10.9
20211011_191622,0.152,-1.107,9.884,0.011,0.028,0.006,21.3,-42.619,12.638,-50.250,5.0,-32.93542,-60.64558,53.7,15.6
20211011_191623,0.286,0.886,10.180,0.078,-0.005,0.004,19.2,-42.469,12.488,-51.956,5.0,-32.93542,-60.64558,53.7,15.6
20211011_191623,-0.006,0.857,9.224,-0.037,0.031,-0.000,17.2,-42.094,14.063,-53.213,5.0,-32.93542,-60.64553,52.6,16.7
20211011_191624,-0.011,0.697,9.801,-0.005,0.026,0.025,15.4,-40.369,14.025,-54.038,5.0,-32.93544,-60.64548,53.3,22.1
20211011_191624,-0.339,0.800,9.724,0.048,0.015,0.029,15.4,-41.756,12.788,-52.744,5.0,-32.93544,-60.64548,53.3,22.1
20211011_191625,-0.056,0.790,10.347,-0.071,0.032,0.027,13.9,-41.756,12.788,-53.213,5.0,-32.93545,-60.64542,55.0,27.6
20211011_191625,1.516,0.895,10.809,-0.049,0.001,-0.034,39.1,-39.638,14.006,-50.156,5.0,-32.93545,-60.64542,55.0,27.6
20211011_191626,-0.775,0.273,10.366,0.097,-0.023,-0.015,28.1,-37.763,13.969,-49.744,5.0,-32.93545,-60.64532,56.3,32.9
20211011_191626,0.243,-1.591,10.977,0.049,0.032,0.002,16.8,-43.369,13.444,-53.644,5.0,-32.93545,-60.64532,56.3,32.9
20211011_191627,0.104,0.053,11.377,-0.016,-0.033,0.004,10.8,-41.363,14.044,-52.763,5.0,-32.93550,-60.64527,51.3,32.7
20211011_191627,0.296,-0.026,10.577,0.065,-0.005,0.008,9.7,-43.819,14.550,-51.000,5.0,-32.93550,-60.64527,51.3,32.7
20211011_191628,0.257,-1.109,9.032,-0.046,-0.003,-0.001,9.7,-42.656,13.913,-50.250,5.0,-32.93550,-60.64514,51.8,35.7
20211011_191628,0.466,-0.573,10.028,-0.000,0.025,0.008,13.1,-40.350,13.556,-51.694,5.0,-32.93550,-60.64514,51.8,35.7
20211011_191629,0.035,-0.673,10.311,-0.016,0.016,-0.007,39.8,-43.013,11.850,-51.319,5.0,-32.93546,-60.64501,42.3,36.1
20211011_191629,-0.310,-0.455,9.202,-0.037,0.001,0.014,31.1,-41.888,12.638,-51.038,5.0,-32.93546,-60.64501,42.3,36.1
20211011_191630,-0.447,-0.436,9.899,-0.015,0.014,0.011,22.4,-42.769,13.275,-51.638,5.0,-32.93548,-60.64491,42.7,36.3
20211011_191630,-0.317,-0.793,9.458,-0.008,0.001,0.001,17.9,-43.106,14.550,-52.575,5.0,-32.93548,-60.64491,42.7,36.3
20211011_191631,0.128,-0.865,10.078,-0.015,0.002,-0.005,14.1,-43.031,12.338,-53.344,5.0,-32.93552,-60.64483,41.6,36.1
20211011_191631,0.011,-1.157,9.121,-0.019,-0.016,0.014,16.1,-44.813,13.950,-52.519,5.0,-32.93552,-60.64483,41.6,36.1
20211011_191632,-0.071,-1.188,10.189,0.037,-0.011,-0.001,14.4,-42.806,14.381,-52.425,5.0,-32.93553,-60.64472,48.4,35.5
20211011_191632,-0.054,-1.267,10.113,-0.008,-0.002,0.008,14.4,-41.419,15.938,-52.763,5.0,-32.93553,-60.64472,48.4,35.5
20211011_191633,0.274,-1.313,9.513,0.027,0.000,0.016,12.9,-44.344,12.825,-51.919,5.0,-32.93553,-60.64459,52.2,34.7
20211011_191633,-0.245,-1.303,10.004,0.007,0.025,0.005,26.5,-42.056,13.256,-53.213,5.0,-32.93553,-60.64459,52.2,34.7
20211011_191634,-0.245,-1.517,9.456,0.009,0.019,0.005,21.0,-43.350,13.444,-51.788,5.0,-32.93553,-60.64449,52.8,33.4
20211011_191634,-0.109,-1.291,9.477,0.003,-0.041,-0.030,15.4,-43.838,15.356,-52.556,5.0,-32.93553,-60.64449,52.8,33.4
20211011_191635,0.461,-1.291,9.817,0.025,0.012,-0.042,13.5,-41.138,16.406,-50.138,5.0,-32.93556,-60.64440,53.0,32.0
20211011_191635,0.371,-3.023,11.408,0.039,0.006,-0.030,10.9,-42.656,14.213,-52.106,5.0,-32.93556,-60.64440,53.0,32.0
20211011_191636,0.701,-2.199,10.711,0.059,0.012,-0.019,9.9,-43.425,15.338,-55.200,5.0,-32.93558,-60.64430,51.9,29.7
20211011_191636,0.126,-2.576,9.358,-0.014,0.081,-0.045,9.9,-41.625,13.106,-52.913,5.0,-32.93558,-60.64430,51.9,29.7
20211011_191637,-0.063,-2.748,9.588,-0.002,-0.021,-0.092,18.7,-40.163,11.813,-54.188,5.0,-32.93559,-60.64423,52.1,23.9
20211011_191637,0.979,-3.145,10.026,0.004,0.089,-0.095,18.7,-41.025,11.981,-52.763,5.0,-32.93559,-60.64423,52.1,23.9
20211011_191638,0.651,-1.505,10.146,-0.014,0.013,-0.117,15.2,-41.850,11.044,-51.356,5.0,-32.93563,-60.64418,52.3,18.2
20211011_191638,0.591,-1.123,10.261,0.027,0.025,-0.187,13.6,-39.806,9.750,-53.250,5.0,-32.93563,-60.64418,52.3,18.2
20211011_191639,2.236,0.215,10.462,0.003,0.046,-0.369,13.6,-39.300,7.219,-53.419,5.0,-32.93563,-60.64413,52.1,16.4
20211011_191639,3.338,-0.795,9.169,-0.011,0.106,-0.468,13.6,-34.688,6.506,-52.913,5.0,-32.93563,-60.64413,52.1,16.4
20211011_191640,3.649,-0.372,9.418,0.023,0.049,-0.488,13.6,-31.050,4.556,-55.313,5.0,-32.93566,-60.64411,49.2,17.9
20211011_191641,1.867,0.089,9.382,0.017,0.026,-0.500,25.3,-26.888,4.631,-54.788,5.0,-32.93566,-60.64411,49.2,17.9
20211011_191641,1.597,0.160,9.559,-0.016,0.054,-0.246,39.7,-22.763,5.831,-56.288,5.0,-32.93572,-60.64409,50.5,21.6
20211011_191642,1.194,0.369,9.339,0.001,0.044,-0.162,27.6,-21.900,10.556,-56.625,5.0,-32.93572,-60.64409,50.5,21.6
20211011_191642,0.890,0.467,10.247,0.014,-0.002,-0.074,15.9,-20.044,6.413,-55.725,5.0,-32.93579,-60.64409,51.1,27.4
20211011_191643,0.214,0.627,9.671,0.008,-0.001,-0.021,11.3,-21.338,6.600,-55.856,5.0,-32.93579,-60.64409,51.1,27.4
20211011_191643,-0.231,-1.183,9.159,-0.063,0.014,-0.029,7.4,-21.056,6.581,-55.556,5.0,-32.93587,-60.64410,49.7,32.5
20211011_191644,-1.003,-1.145,11.437,-0.012,0.003,-0.028,6.7,-21.394,8.175,-55.556,5.0,-32.93587,-60.64410,49.7,32.5
20211011_191644,0.001,-0.987,9.846,-0.071,-0.007,0.009,26.7,-20.775,6.900,-53.081,5.0,-32.93595,-60.64412,48.6,34.4
20211011_191645,-0.279,-0.276,9.940,-0.025,-0.003,0.012,19.8,-21.075,7.069,-55.556,5.0,-32.93595,-60.64412,48.6,34.4
20211011_191645,-0.377,-1.126,10.496,0.004,-0.027,0.004,13.2,-21.038,6.281,-55.556,5.0,-32.93603,-60.64413,46.6,34.7
20211011_191646,-0.255,-0.733,9.978,0.013,-0.025,0.011,10.6,-22.594,5.663,-53.344,5.0,-32.93603,-60.64413,46.6,34.7
20211011_191646,0.691,-1.627,9.975,-0.003,0.042,0.001,7.7,-20.775,6.900,-52.613,5.0,-32.93612,-60.64414,45.8,35.5
20211011_191647,-1.232,-1.179,10.905,-0.033,0.060,0.023,12.0,-22.181,6.131,-54.131,5.0,-32.93612,-60.64414,45.8,35.5
20211011_191647,-0.200,-1.267,10.101,0.006,-0.003,0.027,12.0,-21.919,6.919,-54.919,5.0,-32.93623,-60.64417,46.2,37.3
20211011_191648,-0.336,-1.293,9.482,-0.003,-0.013,-0.009,7.3,-22.519,7.406,-54.750,5.0,-32.93623,-60.64417,46.2,37.3
20211011_191648,0.229,-1.387,9.674,-0.017,0.009,0.012,7.3,-17.700,4.631,-54.075,5.0,-32.93631,-60.64420,43.8,35.3
20211011_191649,0.586,-1.188,9.638,0.077,0.052,0.017,7.3,-20.606,6.263,-54.019,5.0,-32.93631,-60.64420,43.8,35.3
20211011_191649,1.362,-1.718,10.381,-0.005,0.065,-0.005,6.5,-21.075,7.388,-55.238,5.0,-32.93640,-60.64425,39.6,34.7
20211011_191650,0.260,-1.049,9.209,-0.019,0.023,-0.008,5.8,-22.031,5.494,-53.981,5.0,-32.93640,-60.64425,39.6,34.7
20211011_191650,0.061,-1.622,10.218,0.040,0.032,0.003,15.3,-20.288,4.988,-54.488,5.0,-32.93647,-60.64428,36.5,32.4
20211011_191651,-0.018,-1.914,10.486,-0.006,0.014,-0.003,12.0,-20.363,7.838,-54.019,5.0,-32.93647,-60.64428,36.5,32.4
20211011_191651,0.097,-2.063,9.985,-0.001,0.006,-0.003,10.6,-20.344,6.581,-55.575,5.0,-32.93652,-60.64430,35.4,29.6
20211011_191652,-0.030,-1.893,9.717,-0.036,-0.000,-0.005,9.6,-19.350,7.500,-54.206,5.0,-32.93652,-60.64430,35.4,29.6
20211011_191652,-0.605,-1.964,10.292,0.044,-0.012,0.007,9.6,-19.800,7.519,-56.513,5.0,-32.93660,-60.64433,34.4,27.3
20211011_191653,-0.025,-2.292,10.059,0.013,-0.040,-0.011,28.0,-20.438,4.838,-55.725,5.0,-32.93660,-60.64433,34.4,27.3
20211011_191653,0.382,-2.676,10.263,-0.000,-0.024,-0.006,25.2,-19.913,6.563,-54.488,5.0,-32.93666,-60.64434,35.0,23.9
20211011_191654,0.104,-1.634,8.883,0.016,-0.047,-0.012,18.5,-21.769,6.281,-53.981,5.0,-32.93666,-60.64434,35.0,23.9
20211011_191654,0.226,-0.180,8.735,0.064,-0.058,-0.015,14.9,-21.188,6.113,-54.619,5.0,-32.93672,-60.64436,34.3,19.5
20211011_191655,-0.068,-0.091,10.373,0.028,-0.082,0.004,14.9,-21.263,3.900,-54.450,5.0,-32.93672,-60.64436,34.3,19.5
20211011_191655,0.299,0.388,10.417,-0.002,0.043,0.010,14.9,-23.381,3.150,-48.975,5.0,-32.93674,-60.64438,34.2,19.6
20211011_191656,-0.576,0.895,10.208,-0.057,0.030,0.011,14.9,-20.400,4.050,-53.850,5.0,-32.93674,-60.64438,34.2,19.6
20211011_191656,-0.607,0.752,9.707,0.009,-0.011,0.015,14.9,-21.881,5.344,-54.919,5.0,-32.93679,-60.64439,33.8,23.5
20211011_191657,-0.269,0.457,9.734,-0.018,-0.004,0.013,14.9,-22.763,6.300,-55.519,5.0,-32.93679,-60.64439,33.8,23.5
20211011_191657,0.262,-0.221,9.279,0.030,0.053,0.013,14.9,-19.275,4.819,-53.100,5.0,-32.93685,-60.64439,35.3,27.1
20211011_191658,0.371,-0.238,9.542,0.012,0.020,-0.010,35.3,-20.606,5.794,-54.788,5.0,-32.93685,-60.64439,35.3,27.1
20211011_191658,0.030,-0.146,9.518,0.022,0.000,0.003,30.6,-19.463,6.563,-53.719,5.0,-32.93693,-60.64442,36.3,27.5
20211011_191659,-0.458,-0.262,10.047,-0.032,-0.017,-0.004,19.2,-20.588,5.794,-54.019,5.0,-32.93693,-60.64442,36.3,27.5
20211011_191659,0.797,-0.434,10.189,-0.008,0.039,0.010,14.5,-22.031,5.813,-55.838,5.0,-32.93702,-60.64443,37.2,30.6
20211011_191700,0.090,-0.760,9.008,-0.022,-0.002,-0.015,13.0,-21.506,7.238,-54.919,5.0,-32.93702,-60.64443,37.2,30.6
20211011_191700,0.478,-1.171,9.638,0.013,0.010,-0.012,18.8,-20.044,6.413,-54.638,5.0,-32.93710,-60.64446,36.8,30.9
20211011_191701,-0.346,-1.452,9.418,-0.015,-0.001,0.006,28.9,-21.919,7.238,-52.575,5.0,-32.93710,-60.64446,36.8,30.9
20211011_191701,0.655,-1.121,9.635,0.009,0.004,-0.006,20.4,-20.063,7.200,-53.869,5.0,-32.93720,-60.64450,36.8,30.5
20211011_191702,-0.071,-0.989,9.906,-0.031,0.025,0.004,12.9,-20.606,5.794,-54.788,5.0,-32.93720,-60.64450,36.8,30.5
20211011_191702,0.138,-0.965,9.058,0.007,-0.018,-0.021,10.3,-19.463,6.244,-55.275,5.0,-32.93726,-60.64455,32.6,29.5
20211011_191703,0.313,-1.088,9.633,-0.015,-0.002,-0.007,9.2,-20.663,7.838,-53.231,5.0,-32.93726,-60.64455,32.6,29.5
20211011_191703,0.598,-1.095,10.103,-0.031,0.011,-0.018,8.2,-20.306,5.794,-54.019,5.0,-32.93732,-60.64456,33.7,28.5
20211011_191704,0.454,-0.738,9.257,-0.003,0.003,-0.025,19.8,-20.325,6.263,-53.700,5.0,-32.93732,-60.64456,33.7,28.5
20211011_191704,0.126,-0.848,9.580,0.002,0.002,-0.006,15.7,-20.663,7.838,-54.019,5.0,-32.93740,-60.64458,32.7,28.7
20211011_191705,-0.030,-1.325,9.997,0.017,-0.018,0.003,11.5,-21.075,7.369,-53.231,5.0,-32.93740,-60.64458,32.7,28.7
20211011_191705,-0.188,-1.109,10.021,0.010,-0.011,0.017,7.8,-20.588,5.475,-54.469,5.0,-32.93747,-60.64461,34.9,28.6
20211011_191706,-0.042,-0.716,9.664,0.015,0.003,0.025,4.7,-20.044,6.094,-55.425,5.0,-32.93747,-60.64461,34.9,28.6
20211011_191706,-0.083,-0.515,8.510,-0.056,0.019,0.022,3.8,-19.950,7.838,-54.488,5.0,-32.93754,-60.64464,34.4,28.4
20211011_191707,-0.114,-0.664,9.396,0.016,0.006,-0.003,15.3,-19.875,5.775,-52.163,5.0,-32.93754,-60.64464,34.4,28.4
20211011_191707,0.291,-0.958,9.987,0.004,0.024,0.020,15.1,-20.644,7.369,-52.931,5.0,-32.93761,-60.64466,35.1,29.1
20211011_191708,0.102,-1.200,9.518,-0.035,0.054,0.010,11.3,-22.031,5.494,-53.981,5.0,-32.93761,-60.64466,35.1,29.1
20211011_191708,-0.657,-1.538,10.122,-0.019,0.020,0.012,8.9,-22.238,8.025,-53.363,5.0,-32.93768,-60.64468,36.0,28.0
20211011_191709,-0.195,-1.378,9.863,-0.022,-0.026,0.007,7.9,-21.038,6.281,-54.469,5.0,-32.93768,-60.64468,36.0,28.0
20211011_191709,0.035,-1.397,9.487,0.006,-0.020,-0.020,7.9,-19.463,6.244,-53.719,5.0,-32.93773,-60.64470,35.4,26.4
20211011_191710,0.224,-1.028,8.962,0.009,-0.054,-0.015,8.8,-19.481,6.563,-54.506,5.0,-32.93773,-60.64470,35.4,26.4
20211011_191710,0.262,-1.651,10.496,0.007,-0.020,-0.019,12.7,-21.038,6.263,-52.913,5.0,-32.93778,-60.64472,36.5,24.4
20211011_191711,-0.640,-0.920,9.695,0.018,-0.000,-0.005,16.4,-22.069,7.088,-54.750,5.0,-32.93778,-60.64472,36.5,24.4
20211011_191711,0.236,-0.602,11.947,0.120,-0.036,0.002,14.9,-21.450,5.644,-53.831,5.0,-32.93782,-60.64473,39.1,22.4
20211011_191712,-0.154,-0.067,10.824,-0.026,0.032,0.007,14.9,-21.356,7.069,-54.000,5.0,-32.93782,-60.64473,39.1,22.4
20211011_191712,-0.962,0.036,10.297,-0.049,-0.012,0.046,14.9,-19.800,3.094,-54.019,5.0,-32.93789,-60.64473,36.9,24.1
20211011_191713,-0.880,-0.846,10.661,-0.047,0.020,0.044,14.9,-20.569,5.006,-53.231,5.0,-32.93789,-60.64473,36.9,24.1
20211011_191713,-0.640,-1.181,9.966,0.030,-0.045,0.040,14.9,-22.931,6.938,-54.113,5.0,-32.93795,-60.64472,36.7,25.9
20211011_191714,-0.485,-0.546,9.003,0.064,0.017,0.052,14.9,-23.475,5.831,-53.944,5.0,-32.93795,-60.64472,36.7,25.9
20211011_191714,0.073,-0.884,9.614,-0.038,0.032,0.034,32.4,-23.213,6.619,-53.944,5.0,-32.93801,-60.64475,36.7,27.0
20211011_191715,0.272,-1.171,10.083,-0.008,-0.007,-0.010,34.4,-22.163,5.344,-53.044,5.0,-32.93801,-60.64475,36.7,27.0
20211011_191715,0.414,-0.937,10.031,-0.071,0.063,-0.023,23.0,-22.031,5.813,-52.894,5.0,-32.93808,-60.64476,36.3,27.0
20211011_191716,0.555,-0.953,9.729,-0.003,-0.024,-0.029,18.7,-23.494,6.638,-54.713,5.0,-32.93808,-60.64476,36.3,27.0
20211011_191716,-0.171,-0.602,9.092,-0.051,-0.056,-0.047,12.2,-23.344,6.469,-53.006,5.0,-32.93813,-60.64476,34.6,25.3
20211011_191717,0.782,-0.637,10.802,0.006,-0.012,-0.019,8.9,-21.356,7.388,-52.444,5.0,-32.93813,-60.64476,34.6,25.3
20211011_191717,0.198,-0.283,9.518,0.023,-0.026,-0.039,7.9,-21.338,6.281,-54.450,5.0,-32.93819,-60.64478,34.7,26.4
20211011_191718,0.591,-0.264,10.488,-0.017,0.016,-0.020,7.9,-21.469,6.113,-52.594,5.0,-32.93819,-60.64478,34.7,26.4
20211011_191718,0.605,-0.302,8.304,0.019,-0.028,-0.029,7.9,-21.900,6.450,-53.363,5.0,-32.93827,-60.64480,34.4,29.4
20211011_191719,0.701,-0.376,9.674,-0.043,0.007,0.010,7.9,-20.588,5.794,-53.231,5.0,-32.93827,-60.64480,34.4,29.4
20211011_191719,0.572,-0.793,9.540,-0.066,0.042,0.001,5.2,-20.344,7.050,-54.488,5.0,-32.93840,-60.64483,33.4,35.2
20211011_191720,0.238,-0.594,10.028,-0.062,-0.000,0.003,4.1,-19.763,6.881,-53.419,5.0,-32.93840,-60.64483,33.4,35.2
20211011_191720,-0.458,-1.143,10.287,-0.019,0.027,0.006,2.4,-20.756,6.113,-53.381,5.0,-32.93849,-60.64486,31.6,37.2
20211011_191721,0.495,-0.992,9.861,0.041,-0.041,0.003,3.7,-20.494,7.219,-54.169,5.0,-32.93849,-60.64486,31.6,37.2
20211011_191721,-0.188,-1.112,9.693,-0.000,-0.030,-0.016,6.0,-21.919,6.919,-54.600,5.0,-32.93859,-60.64490,29.3,36.8
20211011_191722,0.619,-1.186,9.695,0.117,-0.073,-0.002,9.2,-19.425,4.988,-54.506,5.0,-32.93859,-60.64490,29.3,36.8
20211011_191722,0.188,-1.253,10.134,-0.000,-0.000,0.003,9.2,-18.338,7.181,-54.994,5.0,-32.93870,-60.64491,24.4,36.7
20211011_191723,0.414,-0.973,9.607,-0.022,0.038,0.005,9.2,-18.806,8.606,-54.056,5.0,-32.93870,-60.64491,24.4,36.7
20211011_191723,0.359,-1.219,9.758,-0.008,-0.018,0.002,7.3,-21.206,7.219,-54.619,5.0,-32.93878,-60.64492,25.5,35.0
20211011_191724,0.505,-1.361,9.307,-0.009,-0.029,-0.004,6.6,-19.350,7.200,-54.975,5.0,-32.93878,-60.64492,25.5,35.0
20211011_191724,0.212,-1.226,9.717,0.021,0.022,0.006,6.6,-20.494,7.219,-53.869,5.0,-32.93889,-60.64494,27.3,34.6
20211011_191725,0.540,-1.421,10.366,-0.007,0.014,0.012,5.0,-21.731,5.025,-55.219,5.0,-32.93889,-60.64494,27.3,34.6
20211011_191725,0.257,-1.164,9.583,-0.002,0.011,0.011,4.5,-21.938,7.238,-55.388,5.0,-32.93899,-60.64498,29.4,33.5
20211011_191726,-0.145,-0.369,9.846,0.044,0.057,-0.001,5.9,-21.113,8.644,-54.000,5.0,-32.93899,-60.64498,29.4,33.5
20211011_191726,-0.672,-0.733,10.333,0.056,-0.036,-0.007,7.8,-20.456,6.094,-51.525,5.0,-32.93903,-60.64493,17.2,32.4
20211011_191727,-0.854,-1.317,10.982,0.105,0.011,0.017,8.7,-24.900,5.550,-54.694,5.0,-32.93913,-60.64492,13.2,33.3
20211011_191727,0.085,-0.274,8.641,-0.005,-0.039,-0.005,8.7,-22.744,5.831,-53.963,5.0,-32.93913,-60.64492,13.2,33.3
20211011_191728,0.447,-0.582,10.021,-0.004,-0.027,0.012,8.7,-19.950,7.838,-54.488,5.0,-32.93924,-60.64492,16.3,35.1
20211011_191728,0.047,-0.594,9.238,0.026,0.013,0.019,5.2,-21.263,8.813,-54.938,5.0,-32.93924,-60.64492,16.3,35.1
20211011_191729,0.438,-0.712,9.465,-0.034,-0.003,0.013,3.8,-20.044,6.094,-55.725,5.0,-32.93931,-60.64492,11.6,36.0
20211011_191729,0.066,-0.939,10.014,0.015,-0.095,-0.028,4.2,-21.225,7.538,-54.619,5.0,-32.93931,-60.64492,11.6,36.0
20211011_191730,1.480,-0.489,9.561,0.009,0.019,-0.004,2.9,-18.075,7.800,-53.288,5.0,-32.93939,-60.64494,12.5,36.7
20211011_191730,0.667,-0.388,9.353,0.011,-0.021,-0.007,1.7,-20.738,5.325,-55.406,5.0,-32.93939,-60.64494,12.5,36.7
20211011_191731,0.090,-0.396,8.826,-0.057,-0.042,-0.022,2.3,-20.569,4.369,-55.875,5.0,-32.93948,-60.64497,13.6,36.7
20211011_191731,0.895,-1.279,10.165,0.018,0.048,0.006,1.4,-21.919,6.919,-54.131,5.0,-32.93948,-60.64497,13.6,36.7
20211011_191732,0.629,-1.322,9.023,-0.006,0.069,0.026,0.8,-21.169,5.644,-55.388,5.0,-32.93956,-60.64500,15.8,35.9
20211011_191732,0.325,-1.447,11.576,0.049,0.022,0.001,0.7,-18.788,7.819,-54.525,5.0,-32.93956,-60.64500,15.8,35.9
20211011_191733,1.108,-0.338,10.431,0.011,0.015,0.017,2.2,-20.400,4.050,-56.494,5.0,-32.93964,-60.64504,20.2,35.7
20211011_191733,0.864,-1.102,9.432,-0.081,-0.014,0.001,4.2,-21.206,6.900,-55.388,5.0,-32.93964,-60.64504,20.2,35.7
20211011_191734,0.212,-1.281,9.370,-0.052,0.008,-0.009,3.5,-19.163,5.775,-54.825,5.0,-32.93972,-60.64506,21.6,34.7
20211011_191734,0.248,-0.908,9.492,-0.083,-0.064,-0.001,2.3,-20.344,6.581,-56.663,5.0,-32.93972,-60.64506,21.6,34.7
20211011_191735,0.497,-0.920,9.686,0.013,-0.009,0.021,3.2,-17.138,5.569,-52.688,5.0,-32.93981,-60.64508,21.0,34.2
20211011_191735,0.464,-0.393,9.465,0.017,-0.022,0.005,2.2,-19.425,5.456,-52.481,5.0,-32.93981,-60.64508,21.0,34.2
20211011_191736,0.402,-0.755,10.350,0.029,0.014,-0.011,2.1,-18.994,4.500,-56.213,5.0,-32.93991,-60.64511,21.2,35.5
20211011_191736,0.035,-0.908,9.990,-0.023,0.001,0.002,2.8,-19.519,7.819,-56.363,5.0,-32.93991,-60.64511,21.2,35.5
20211011_191737,1.151,-0.822,9.250,0.002,0.039,0.005,2.5,-20.513,7.519,-54.638,5.0,-32.94000,-60.64513,21.7,35.9
20211011_191737,0.758,-0.958,10.081,-0.028,0.001,0.013,1.4,-19.275,9.394,-52.969,5.0,-32.94000,-60.64513,21.7,35.9
20211011_191738,0.311,-2.588,10.807,0.009,0.056,0.013,0.9,-18.750,6.544,-55.913,5.0,-32.94008,-60.64515,22.0,35.1
20211011_191738,1.523,-1.883,10.922,-0.006,0.084,0.005,0.9,-20.794,8.006,-52.613,5.0,-32.94008,-60.64515,22.0,35.1
20211011_191739,1.180,0.053,11.847,-0.043,-0.030,-0.025,3.9,-20.363,7.369,-54.488,5.0,-32.94017,-60.64517,21.5,34.7
20211011_191739,1.402,-1.066,8.826,-0.042,0.022,0.001,7.0,-20.325,6.263,-52.463,5.0,-32.94017,-60.64517,21.5,34.7
20211011_191740,1.163,-0.360,11.097,0.073,0.096,0.018,10.2,-20.813,8.006,-53.081,5.0,-32.94025,-60.64520,20.1,34.3
20211011_191741,0.670,-0.247,8.720,-0.052,-0.006,-0.005,11.8,-21.713,4.706,-52.125,5.0,-32.94025,-60.64520,20.1,34.3
20211011_191741,1.005,-1.047,9.255,-0.014,-0.055,-0.014,13.5,-20.625,7.050,-53.700,5.0,-32.94032,-60.64522,21.9,33.6
20211011_191742,0.337,-0.874,11.341,0.196,-0.049,0.001,15.1,-21.956,8.025,-54.131,5.0,-32.94032,-60.64522,21.9,33.6
20211011_191742,-0.305,-1.258,10.007,-0.003,0.020,-0.010,13.7,-21.225,7.538,-54.938,5.0,-32.94042,-60.64526,23.5,34.8
20211011_191743,-0.181,-0.685,9.571,0.025,-0.015,0.007,11.1,-22.538,8.194,-56.306,5.0,-32.94042,-60.64526,23.5,34.8
20211011_191743,0.051,-1.073,11.140,0.051,-0.058,-0.022,11.1,-21.731,5.025,-55.838,5.0,-32.94051,-60.64529,21.6,35.9
20211011_191744,-0.145,-0.745,9.195,0.049,0.104,-0.005,11.1,-23.663,7.275,-56.119,5.0,-32.94051,-60.64529,21.6,35.9
20211011_191744,0.622,-1.636,9.537,-0.083,-0.029,0.012,11.1,-23.231,7.406,-52.406,5.0,-32.94061,-60.64533,22.7,35.7
20211011_191745,0.351,-0.767,8.754,-0.045,-0.100,0.001,11.1,-24.263,8.700,-53.625,5.0,-32.94061,-60.64533,22.7,35.7
20211011_191745,0.653,-1.169,9.714,-0.047,0.076,0.020,11.1,-23.269,8.681,-53.944,5.0,-32.94068,-60.64534,26.4,34.1
20211011_191746,-0.377,-1.636,10.019,-0.018,-0.010,0.004,8.8,-22.125,8.981,-54.750,5.0,-32.94068,-60.64534,26.4,34.1
20211011_191746,0.219,-1.056,9.422,-0.029,-0.020,0.002,5.3,-20.381,8.156,-53.700,5.0,-32.94076,-60.64537,25.7,32.9
20211011_191747,0.505,-1.188,9.748,0.013,0.032,0.007,4.8,-20.681,8.625,-52.931,5.0,-32.94076,-60.64537,25.7,32.9
20211011_191747,-0.351,-0.791,8.914,-0.024,-0.040,-0.017,4.8,-19.088,7.969,-54.206,5.0,-32.94084,-60.64538,24.3,31.5
20211011_191748,-0.279,-0.994,8.945,0.035,-0.027,-0.007,5.5,-21.094,7.856,-54.469,5.0,-32.94084,-60.64538,24.3,31.5
20211011_191748,1.812,-2.197,10.876,-0.013,0.032,0.038,6.1,-19.500,7.819,-52.950,5.0,-32.94091,-60.64541,26.0,30.2
20211011_191749,-0.712,-1.025,9.154,-0.119,0.074,0.021,6.1,-17.831,4.800,-52.369,5.0,-32.94091,-60.64541,26.0,30.2
20211011_191749,-0.020,-1.373,9.288,-0.027,-0.004,-0.014,4.1,-18.581,5.288,-54.206,5.0,-32.94098,-60.64543,26.4,29.3
20211011_191750,-0.274,-0.894,11.650,0.106,-0.182,-0.049,2.7,-18.488,7.013,-54.525,5.0,-32.94098,-60.64543,26.4,29.3
20211011_191750,0.679,-1.481,9.468,0.063,-0.003,-0.026,2.7,-17.906,7.163,-53.925,5.0,-32.94106,-60.64545,24.3,28.8
20211011_191751,1.153,-0.513,9.499,-0.040,-0.013,-0.011,5.2,-19.894,6.563,-54.019,5.0,-32.94106,-60.64545,24.3,28.8
20211011_191751,0.265,-0.520,9.061,-0.013,-0.031,-0.019,4.2,-20.081,7.988,-53.400,5.0,-32.94112,-60.64547,25.8,28.4
20211011_191752,0.964,-0.664,9.597,-0.007,-0.006,-0.021,2.5,-20.306,5.794,-54.788,5.0,-32.94112,-60.64547,25.8,28.4
20211011_191752,-0.049,-0.614,8.519,-0.002,-0.020,-0.011,1.5,-20.063,6.881,-55.425,5.0,-32.94118,-60.64549,25.7,27.5
20211011_191753,0.646,-1.090,9.901,-0.023,-0.032,-0.005,4.0,-18.713,5.438,-52.500,5.0,-32.94118,-60.64549,25.7,27.5
20211011_191753,0.464,-1.119,9.379,-0.003,-0.003,0.009,9.2,-19.894,6.263,-54.806,5.0,-32.94126,-60.64551,25.0,27.4
20211011_191754,0.912,-0.671,9.068,-0.004,-0.006,-0.017,12.1,-21.150,5.325,-53.831,5.0,-32.94126,-60.64551,25.0,27.4
20211011_191754,0.813,-1.557,10.570,-0.015,0.012,0.012,13.7,-22.031,5.813,-53.663,5.0,-32.94133,-60.64553,24.7,27.5
20211011_191755,0.255,-0.343,8.208,0.046,0.089,-0.007,15.5,-21.225,7.538,-53.850,5.0,-32.94133,-60.64553,24.7,27.5
20211011_191755,0.835,-0.582,10.577,0.337,0.069,0.062,17.3,-19.894,6.244,-53.719,5.0,-32.94141,-60.64555,22.9,27.6
20211011_191756,-0.391,-1.100,9.995,0.188,-0.021,-0.013,17.3,-22.163,5.344,-53.813,5.0,-32.94141,-60.64555,22.9,27.6
20211011_191756,0.294,-0.772,9.592,0.076,-0.024,-0.034,17.3,-18.731,6.225,-52.181,5.0,-32.94151,-60.64555,26.3,29.5
20211011_191757,0.868,-1.315,11.164,0.081,-0.051,0.013,14.9,-22.575,4.875,-53.813,5.0,-32.94151,-60.64555,26.3,29.5
20211011_191757,0.536,-1.255,9.844,-0.084,0.030,-0.005,11.8,-20.794,7.538,-53.081,5.0,-32.94158,-60.64558,27.6,29.2
20211011_191758,1.079,-2.022,9.355,0.019,0.018,-0.025,10.7,-20.625,6.581,-54.469,5.0,-32.94158,-60.64558,27.6,29.2
20211011_191758,0.799,-1.921,10.019,0.025,0.024,0.010,10.7,-19.950,8.625,-52.163,5.0,-32.94164,-60.64560,28.5,27.4
20211011_191759,-0.451,-2.868,9.980,0.021,-0.048,-0.040,11.9,-22.106,7.875,-56.306,5.0,-32.94164,-60.64560,28.5,27.4
20211011_191759,1.437,-1.419,9.877,0.032,-0.010,0.014,11.9,-24.056,6.169,-53.775,5.0,-32.94171,-60.64561,31.6,23.7
20211011_191800,0.178,-1.222,9.260,-0.012,0.021,-0.008,10.7,-21.075,7.069,-55.238,5.0,-32.94171,-60.64561,31.6,23.7
20211011_191800,1.046,0.081,8.806,0.009,0.047,0.024,10.7,-21.319,6.281,-52.444,5.0,-32.94176,-60.64563,30.9,21.3
20211011_191801,1.393,-0.029,8.557,-0.079,-0.033,-0.042,13.4,-20.456,5.625,-55.725,5.0,-32.94176,-60.64563,30.9,21.3
20211011_191801,0.694,-0.843,9.470,-0.056,0.053,-0.006,13.4,-20.775,6.900,-54.938,5.0,-32.94181,-60.64564,31.6,21.9
20211011_191802,0.665,-1.056,9.940,-0.011,0.035,-0.007,13.4,-21.375,7.856,-54.469,5.0,-32.94181,-60.64564,31.6,21.9
20211011_191802,0.265,-1.713,9.650,-0.007,0.038,0.025,13.4,-19.331,6.394,-55.444,5.0,-32.94188,-60.64567,32.7,24.2
20211011_191803,0.378,-1.797,10.603,0.021,0.067,0.010,13.4,-20.738,5.325,-55.406,5.0,-32.94188,-60.64567,32.7,24.2
20211011_191803,0.943,-0.446,9.348,-0.018,0.065,0.011,13.4,-20.644,7.369,-54.019,5.0,-32.94194,-60.64569,34.1,23.3
20211011_191804,1.158,-0.697,10.962,0.079,0.089,0.009,13.4,-19.950,7.838,-56.363,5.0,-32.94194,-60.64569,34.1,23.3
20211011_191804,0.238,-0.858,9.458,0.011,0.025,0.034,12.0,-19.181,6.563,-54.825,5.0,-32.94201,-60.64570,35.0,23.9
20211011_191805,-0.279,-0.982,9.940,0.015,-0.033,0.034,10.9,-21.356,7.388,-54.769,5.0,-32.94201,-60.64570,35.0,23.9
20211011_191805,0.255,-0.714,9.458,0.035,-0.008,0.007,9.5,-21.056,6.281,-56.644,5.0,-32.94207,-60.64571,37.1,24.0
20211011_191806,0.536,-0.906,9.908,-0.060,-0.119,-0.026,7.5,-19.950,7.838,-54.806,5.0,-32.94207,-60.64571,37.1,24.0
20211011_191806,1.480,0.103,9.667,0.020,0.056,-0.013,6.8,-20.719,4.838,-54.169,5.0,-32.94213,-60.64573,36.8,24.3
20211011_191807,0.732,-0.757,9.351,0.022,0.048,-0.002,4.7,-20.606,6.263,-55.556,5.0,-32.94213,-60.64573,36.8,24.3
20211011_191807,0.416,-0.678,11.492,0.077,-0.014,-0.029,2.8,-20.606,5.794,-56.344,5.0,-32.94218,-60.64574,35.7,24.2
20211011_191808,0.342,-1.100,9.461,0.006,0.031,-0.022,1.7,-20.419,4.519,-55.725,5.0,-32.94218,-60.64574,35.7,24.2
20211011_191808,0.454,-0.554,10.438,0.009,-0.016,-0.018,1.2,-20.363,7.050,-56.663,5.0,-32.94224,-60.64576,35.3,24.7
20211011_191809,0.274,-1.543,10.338,0.025,0.055,0.003,2.1,-20.063,7.200,-53.100,5.0,-32.94224,-60.64576,35.3,24.7
20211011_191809,0.159,-1.593,8.754,0.050,-0.004,-0.006,4.5,-21.206,6.900,-53.063,5.0,-32.94231,-60.64578,35.1,25.4
20211011_191810,0.655,-0.970,9.580,-0.067,0.011,-0.012,6.1,-21.469,6.131,-56.156,5.0,-32.94231,-60.64578,35.1,25.4
20211011_191810,-0.063,-1.440,9.434,0.017,0.036,-0.010,6.1,-20.063,7.200,-55.425,5.0,-32.94236,-60.64580,35.7,24.0
20211011_191811,-0.312,-2.767,10.088,0.034,-0.017,-0.010,4.8,-22.125,8.981,-54.450,5.0,-32.94236,-60.64580,35.7,24.0
20211011_191811,-0.310,-1.085,10.187,-0.010,0.061,0.004,4.3,-21.094,7.856,-53.231,5.0,-32.94243,-60.64581,35.3,21.7
20211011_191812,-0.681,-0.709,10.460,-0.003,0.015,-0.006,4.8,-20.081,7.519,-53.400,5.0,-32.94243,-60.64581,35.3,21.7
20211011_191812,-0.037,-0.096,10.004,-0.007,0.040,0.008,6.2,-18.488,7.331,-55.931,5.0,-32.94249,-60.64583,35.6,19.9
20211011_191813,0.509,-1.284,8.857,-0.013,0.006,0.019,7.0,-23.213,6.619,-55.819,5.0,-32.94249,-60.64583,35.6,19.9
20211011_191813,0.126,1.200,10.194,-0.074,-0.018,-0.003,9.4,-22.200,6.450,-53.344,5.0,-32.94254,-60.64584,34.3,20.5
20211011_191814,-0.588,0.742,9.726,-0.077,0.033,0.022,10.6,-22.481,6.300,-55.200,5.0,-32.94254,-60.64584,34.3,20.5
20211011_191814,0.286,0.072,10.512,-0.019,0.009,0.004,11.9,-20.550,3.900,-55.556,5.0,-32.94259,-60.64588,36.5,23.4
20211011_191815,-0.289,-0.700,10.699,-0.013,-0.225,-0.035,11.9,-20.738,5.325,-56.175,5.0,-32.94259,-60.64588,36.5,23.4
20211011_191815,-0.516,-0.412,9.631,0.024,0.012,-0.001,11.9,-22.219,7.556,-52.575,5.0,-32.94265,-60.64590,37.1,26.6
20211011_191816,0.111,-0.736,9.284,0.025,0.013,-0.004,9.6,-20.363,7.838,-52.163,5.0,-32.94265,-60.64590,37.1,26.6
20211011_191816,1.110,-1.234,8.826,0.005,0.007,-0.008,7.3,-20.306,5.475,-53.231,5.0,-32.94272,-60.64591,38.1,28.4
20211011_191817,0.169,-0.566,10.124,0.009,-0.084,-0.025,6.6,-18.731,5.756,-52.500,5.0,-32.94280,-60.64593,38.4,28.5
20211011_191817,0.569,-0.475,9.813,0.029,-0.033,-0.001,6.6,-19.200,7.031,-54.825,5.0,-32.94280,-60.64593,38.4,28.5
20211011_191818,0.085,-1.641,10.237,0.017,0.047,-0.006,6.0,-15.169,6.956,-51.038,5.0,-32.94286,-60.64596,39.9,28.6
20211011_191818,0.171,-0.223,9.161,-0.007,0.023,0.007,4.6,-18.338,7.181,-51.900,5.0,-32.94286,-60.64596,39.9,28.6
20211011_191819,0.612,-0.839,10.316,-0.008,0.028,0.025,3.6,-21.000,4.688,-54.469,5.0,-32.94295,-60.64598,39.8,29.6
20211011_191819,0.706,-0.561,10.651,0.006,-0.033,0.010,3.3,-21.356,7.069,-53.681,5.0,-32.94295,-60.64598,39.8,29.6
20211011_191820,1.259,-0.673,8.088,-0.015,0.058,0.030,3.7,-20.494,6.900,-55.406,5.0,-32.94306,-60.64602,40.0,32.2
20211011_191820,1.556,-0.860,9.322,-0.105,0.011,0.015,5.5,-19.894,6.563,-53.719,5.0,-32.94306,-60.64602,40.0,32.2
20211011_191821,0.957,-0.915,9.951,0.024,0.021,0.017,8.2,-22.725,5.044,-51.638,5.0,-32.94315,-60.64602,39.2,33.4
20211011_191821,0.375,-0.980,9.679,0.001,0.046,0.020,10.2,-19.425,4.988,-53.719,5.0,-32.94315,-60.64602,39.2,33.4
20211011_191822,-0.202,-0.913,9.319,-0.055,-0.066,-0.021,11.3,-21.038,6.281,-54.769,5.0,-32.94325,-60.64604,37.3,33.3
20211011_191822,-0.018,-0.575,7.702,0.017,0.058,0.015,11.3,-19.894,6.244,-53.250,5.0,-32.94325,-60.64604,37.3,33.3
20211011_191823,0.238,-1.689,9.748,-0.003,0.001,0.003,12.6,-21.525,8.025,-53.363,5.0,-32.94336,-60.64604,37.0,34.1
20211011_191823,0.552,-0.614,9.171,0.015,0.019,-0.002,12.6,-19.388,8.775,-53.119,5.0,-32.94336,-60.64604,37.0,34.1
20211011_191824,0.634,-0.376,9.449,-0.023,0.003,-0.002,12.6,-18.338,6.863,-55.781,5.0,-32.94346,-60.64608,36.1,35.8
20211011_191824,0.426,-1.634,9.712,0.054,0.013,-0.003,12.6,-17.888,6.375,-52.369,5.0,-32.94346,-60.64608,36.1,35.8
20211011_191825,-1.108,-1.790,4.708,-0.385,-0.095,-0.084,12.6,-20.494,6.900,-54.638,5.0,-32.94354,-60.64611,36.6,36.6
20211011_191825,-0.511,-0.764,8.953,-0.132,-0.033,-0.018,12.6,-23.325,6.150,-53.006,5.0,-32.94354,-60.64611,36.6,36.6
20211011_191826,0.356,-0.860,11.152,0.052,0.044,0.021,10.1,-19.481,7.031,-53.269,5.0,-32.94363,-60.64613,36.8,36.9
20211011_191826,-0.379,-0.901,10.141,0.046,-0.023,-0.026,6.5,-19.350,7.200,-55.444,5.0,-32.94363,-60.64613,36.8,36.9
20211011_191827,0.147,-1.162,10.326,0.009,-0.011,-0.005,4.7,-19.050,6.863,-54.975,5.0,-32.94372,-60.64616,37.0,37.4
20211011_191827,-0.049,-0.740,9.530,0.002,-0.034,-0.029,2.7,-20.456,5.625,-54.638,5.0,-32.94372,-60.64616,37.0,37.4
20211011_191828,-0.020,-0.640,8.704,0.025,0.023,0.018,1.6,-19.500,7.819,-53.738,5.0,-32.94380,-60.64618,37.8,36.8
20211011_191828,0.900,-1.395,9.767,0.039,0.026,-0.005,1.9,-20.756,6.431,-54.169,5.0,-32.94380,-60.64618,37.8,36.8
20211011_191829,0.524,-1.792,11.015,0.076,-0.010,-0.013,1.5,-20.325,6.263,-52.931,5.0,-32.94388,-60.64621,39.0,36.1
20211011_191829,1.048,-1.428,11.363,0.176,0.054,0.025,0.9,-21.319,5.794,-53.681,5.0,-32.94388,-60.64621,39.0,36.1
20211011_191830,-0.190,-0.870,8.797,0.011,-0.017,-0.010,1.8,-21.731,5.025,-53.981,5.0,-32.94397,-60.64623,38.7,35.5
20211011_191830,0.066,-0.877,9.808,-0.009,-0.018,-0.006,5.6,-20.475,6.413,-54.169,5.0,-32.94397,-60.64623,38.7,35.5
20211011_191831,0.639,-0.989,10.333,0.033,0.017,0.013,7.9,-22.200,6.450,-54.600,5.0,-32.94405,-60.64626,38.4,34.8
20211011_191831,0.138,-1.231,9.233,-0.043,-0.025,-0.021,9.1,-20.794,7.538,-54.938,5.0,-32.94405,-60.64626,38.4,34.8
20211011_191832,1.230,-1.919,10.242,-0.065,0.007,0.038,10.2,-20.981,4.369,-55.556,5.0,-32.94413,-60.64629,38.5,33.0
20211011_191833,-0.363,-1.519,9.082,0.063,0.033,0.031,11.3,-19.913,7.050,-55.275,5.0,-32.94413,-60.64629,38.5,33.0
20211011_191833,-0.597,-0.870,9.549,0.009,0.005,0.015,11.3,-19.875,5.775,-55.275,5.0,-32.94423,-60.64630,41.9,32.6
20211011_191834,0.150,-0.546,10.069,0.019,0.022,-0.018,9.9,-22.238,7.556,-54.131,5.0,-32.94423,-60.64630,41.9,32.6
20211011_191834,0.639,-1.262,10.127,0.013,-0.013,0.004,7.9,-21.900,6.131,-53.363,5.0,-32.94432,-60.64632,42.0,31.9
20211011_191835,0.667,-1.176,9.992,0.017,0.014,-0.004,7.9,-20.588,5.475,-54.788,5.0,-32.94432,-60.64632,42.0,31.9
20211011_191835,0.507,-1.431,10.045,0.002,-0.015,0.003,8.9,-20.588,5.475,-55.256,5.0,-32.94440,-60.64634,40.3,31.2
20211011_191836,0.193,-1.066,9.597,0.013,0.040,0.003,9.9,-21.225,7.219,-55.706,5.0,-32.94440,-60.64634,40.3,31.2
20211011_191836,-0.195,-1.378,8.929,-0.006,-0.019,-0.014,11.1,-22.238,7.556,-54.600,5.0,-32.94448,-60.64637,39.9,30.5
20211011_191837,0.619,-0.839,9.518,0.018,0.014,0.004,11.1,-20.494,7.519,-53.081,5.0,-32.94448,-60.64637,39.9,30.5
20211011_191837,0.734,-1.320,8.969,-0.014,0.011,0.018,11.1,-21.338,6.281,-54.450,5.0,-32.94458,-60.64638,41.5,30.6
20211011_191838,-1.022,-0.961,9.370,-0.000,0.004,-0.004,10.0,-24.038,5.700,-55.331,5.0,-32.94458,-60.64638,41.5,30.6
20211011_191838,0.272,-1.359,9.817,0.021,0.023,0.006,7.7,-17.156,6.038,-50.363,5.0,-32.94464,-60.64639,39.6,29.2
20211011_191839,0.221,-1.071,9.681,0.030,0.011,0.005,4.3,-21.394,8.644,-54.469,5.0,-32.94464,-60.64639,39.6,29.2
20211011_191839,1.889,-0.420,9.844,0.026,-0.048,-0.005,3.5,-22.069,7.388,-52.425,5.0,-32.94472,-60.64641,39.1,29.3
20211011_191840,0.440,-1.238,9.140,-0.034,-0.017,0.002,4.0,-23.625,6.150,-54.563,5.0,-32.94472,-60.64641,39.1,29.3
20211011_191840,0.260,-0.992,10.103,0.003,0.019,0.012,5.9,-20.663,8.156,-51.675,5.0,-32.94479,-60.64643,39.0,29.1
20211011_191841,0.684,-1.684,9.896,0.054,0.068,0.019,7.9,-21.169,10.538,-55.556,5.0,-32.94479,-60.64643,39.0,29.1
20211011_191841,-0.224,-0.848,8.445,-0.015,-0.073,-0.029,10.2,-20.719,4.838,-54.169,5.0,-32.94486,-60.64644,37.9,28.3
20211011_191842,-0.061,-0.286,8.546,-0.172,-0.048,-0.011,11.4,-19.744,6.413,-53.419,5.0,-32.94486,-60.64644,37.9,28.3
20211011_191842,-0.277,-0.757,9.669,-0.040,-0.051,0.002,11.4,-22.800,7.406,-52.875,5.0,-32.94493,-60.64647,39.9,28.9
20211011_191843,-0.023,-0.970,9.877,0.026,-0.083,-0.019,10.1,-20.756,6.431,-54.169,5.0,-32.94493,-60.64647,39.9,28.9
20211011_191843,0.940,-1.375,9.698,-0.083,-0.065,-0.006,8.0,-19.575,10.200,-53.269,5.0,-32.94500,-60.64647,38.4,28.7
20211011_191844,-0.286,-0.590,8.723,-0.010,-0.018,0.003,8.0,-19.519,8.138,-55.275,5.0,-32.94500,-60.64647,38.4,28.7
20211011_191844,0.102,-1.092,9.626,-0.017,0.015,-0.002,8.0,-19.781,7.200,-54.188,5.0,-32.94508,-60.64648,37.4,27.8
20211011_191845,0.619,-0.599,9.207,0.007,0.035,0.001,8.9,-19.950,7.838,-55.575,5.0,-32.94508,-60.64648,37.4,27.8
20211011_191845,-0.619,-0.767,9.523,-0.006,-0.002,-0.009,9.9,-20.738,5.644,-54.619,5.0,-32.94516,-60.64649,38.2,27.1
20211011_191846,0.142,-1.138,9.901,0.009,-0.018,-0.001,9.9,-21.750,5.813,-54.750,5.0,-32.94516,-60.64649,38.2,27.1
20211011_191846,0.411,-1.443,9.492,-0.023,0.017,0.007,9.9,-18.769,7.331,-54.056,5.0,-32.94523,-60.64651,38.6,26.6
20211011_191847,0.397,-1.155,9.516,-0.049,-0.030,0.004,11.1,-19.800,7.519,-55.425,5.0,-32.94523,-60.64651,38.6,26.6
20211011_191847,-0.631,-1.246,10.558,-0.084,0.011,0.006,12.6,-22.200,6.919,-53.344,5.0,-32.94530,-60.64653,38.6,25.6
20211011_191848,0.461,-0.879,10.833,-0.017,0.014,0.032,14.1,-19.369,7.988,-54.656,5.0,-32.94530,-60.64653,38.6,25.6
20211011_191848,-0.468,-0.851,9.346,-0.014,-0.005,0.005,14.1,-19.031,6.394,-54.206,5.0,-32.94537,-60.64654,38.3,25.2
20211011_191849,0.737,-0.736,9.626,-0.014,-0.006,0.002,12.7,-21.206,7.219,-53.381,5.0,-32.94537,-60.64654,38.3,25.2
20211011_191849,0.821,-0.793,9.310,0.007,0.035,0.005,11.3,-21.019,5.794,-53.231,5.0,-32.94543,-60.64655,39.7,25.3
20211011_191850,0.164,-0.953,9.770,-0.024,-0.011,0.010,8.8,-21.056,6.581,-52.913,5.0,-32.94543,-60.64655,39.7,25.3
20211011_191850,0.133,-1.004,9.817,0.001,-0.017,-0.007,7.1,-21.225,7.538,-55.706,5.0,-32.94548,-60.64656,38.1,25.2
20211011_191851,0.378,-1.076,10.237,0.011,-0.037,-0.028,5.6,-20.081,7.988,-54.188,5.0,-32.94548,-60.64656,38.1,25.2
20211011_191851,-0.068,-1.262,9.693,0.021,0.006,0.002,4.1,-21.263,8.794,-53.063,5.0,-32.94554,-60.64658,39.7,23.6
20211011_191852,0.281,-1.375,9.157,-0.001,-0.001,-0.005,4.7,-19.725,5.625,-54.956,5.0,-32.94554,-60.64658,39.7,23.6
20211011_191852,0.090,-1.116,9.564,0.002,-0.003,-0.013,5.3,-20.644,7.050,-54.788,5.0,-32.94561,-60.64659,40.4,23.1
20211011_191853,-0.140,-1.135,10.182,0.009,-0.031,-0.019,4.6,-19.706,4.838,-54.956,5.0,-32.94561,-60.64659,40.4,23.1
20211011_191853,0.347,-1.375,9.796,-0.061,-0.076,-0.016,2.9,-18.431,5.438,-54.056,5.0,-32.94568,-60.64659,38.2,23.1
20211011_191854,0.433,-0.604,9.894,0.005,0.009,-0.000,2.6,-19.894,6.563,-54.019,5.0,-32.94568,-60.64659,38.2,23.1
20211011_191854,0.238,-0.616,9.889,-0.007,-0.003,0.005,3.7,-19.350,7.500,-54.206,5.0,-32.94573,-60.64660,38.0,22.8
20211011_191855,0.051,-0.252,9.525,-0.010,-0.014,0.002,4.2,-20.381,7.838,-54.488,5.0,-32.94573,-60.64660,38.0,22.8
20211011_191855,0.354,-0.546,9.913,-0.003,-0.013,-0.001,3.8,-20.363,7.838,-53.250,5.0,-32.94579,-60.64662,38.1,24.2
20211011_191856,0.821,-1.001,9.607,-0.010,0.001,0.012,4.3,-20.794,7.538,-53.381,5.0,-32.94579,-60.64662,38.1,24.2
20211011_191856,0.660,-0.863,10.335,0.004,-0.009,0.001,4.9,-20.438,5.306,-54.638,5.0,-32.94584,-60.64663,38.7,24.6
20211011_191857,-0.123,-0.458,9.044,-0.052,0.050,0.017,6.2,-18.469,6.544,-52.969,5.0,-32.94584,-60.64663,38.7,24.6
20211011_191857,0.409,-0.839,10.462,-0.046,-0.001,0.001,8.0,-20.306,5.794,-53.700,5.0,-32.94591,-60.64664,38.5,25.0
20211011_191858,-0.116,-0.772,10.400,0.049,-0.016,0.009,10.1,-20.344,7.050,-54.019,5.0,-32.94591,-60.64664,38.5,25.0
20211011_191858,0.042,-1.179,9.176,-0.098,-0.045,0.012,13.5,-23.963,3.319,-49.894,5.0,-32.94599,-60.64666,38.2,26.7
20211011_191859,0.378,-0.664,9.044,-0.025,-0.009,0.005,15.4,-18.956,3.713,-54.975,5.0,-32.94599,-60.64666,38.2,26.7
20211011_191859,-0.071,-0.010,9.954,0.044,-0.068,-0.007,17.3,-17.569,5.588,-52.369,5.0,-32.94606,-60.64667,37.3,27.6
20211011_191900,0.682,-1.006,10.558,0.053,0.024,-0.001,17.3,-21.413,8.644,-56.325,5.0,-32.94606,-60.64667,37.3,27.6
20211011_191900,0.035,-1.255,9.640,-0.000,0.038,0.015,17.3,-20.063,6.881,-54.956,5.0,-32.94613,-60.64669,37.1,29.2
20211011_191901,0.080,-0.712,9.370,-0.018,0.004,0.007,15.5,-18.656,8.288,-54.994,5.0,-32.94613,-60.64669,37.1,29.2
20211011_191901,0.209,-0.841,9.779,0.002,-0.003,0.007,12.0,-20.569,9.581,-54.956,5.0,-32.94621,-60.64670,37.4,29.6
20211011_191902,0.025,-0.829,9.193,0.007,-0.014,0.003,12.0,-20.044,6.881,-51.544,5.0,-32.94621,-60.64670,37.4,29.6
20211011_191902,-0.135,-1.123,9.492,-0.008,-0.003,0.009,12.0,-21.338,6.600,-52.444,5.0,-32.94629,-60.64672,38.4,30.3
20211011_191903,0.524,-1.279,9.011,-0.006,-0.021,-0.002,10.8,-20.288,4.988,-54.788,5.0,-32.94629,-60.64672,38.4,30.3
20211011_191903,0.773,-0.968,9.537,-0.020,0.040,0.017,10.8,-20.644,7.369,-54.469,5.0,-32.94635,-60.64672,40.7,29.2
20211011_191904,-0.054,-0.910,10.038,0.002,0.006,-0.004,10.8,-22.500,6.619,-55.519,5.0,-32.94635,-60.64672,40.7,29.2
20211011_191904,-0.042,-1.013,9.114,0.010,-0.015,-0.001,10.8,-23.513,7.106,-53.944,5.0,-32.94644,-60.64675,38.0,29.3
20211011_191905,0.588,-0.365,9.779,-0.030,0.026,0.015,10.8,-22.238,7.556,-54.900,5.0,-32.94644,-60.64675,38.0,29.3
20211011_191905,-0.209,-0.925,10.493,0.185,-0.013,0.001,10.8,-21.788,7.388,-55.219,5.0,-32.94650,-60.64676,37.3,28.5
20211011_191906,0.426,-0.853,10.016,0.064,-0.029,-0.005,10.8,-22.425,4.725,-53.194,5.0,-32.94650,-60.64676,37.3,28.5
20211011_191906,0.703,-0.740,8.914,0.047,-0.014,-0.008,10.8,-21.281,5.006,-53.213,5.0,-32.94656,-60.64678,36.3,29.0
20211011_191907,0.653,-0.031,6.591,0.042,0.013,-0.007,10.8,-21.113,8.644,-53.700,5.0,-32.94656,-60.64678,36.3,29.0
20211011_191907,0.550,-1.210,9.099,0.033,0.046,0.007,9.7,-21.075,7.369,-52.913,5.0,-32.94664,-60.64680,35.3,30.5
20211011_191908,0.174,-0.693,9.178,0.016,0.060,0.005,9.7,-21.900,6.131,-53.831,5.0,-32.94664,-60.64680,35.3,30.5
20211011_191908,0.102,-0.858,9.975,-0.015,-0.024,-0.023,9.7,-19.331,7.181,-51.563,5.0,-32.94673,-60.64682,36.1,30.4
20211011_191909,0.775,-1.109,9.817,-0.008,-0.002,0.015,9.7,-19.913,6.563,-54.488,5.0,-32.94673,-60.64682,36.1,30.4
20211011_191909,1.199,-2.113,10.515,-0.023,-0.057,-0.015,9.7,-20.588,5.794,-52.931,5.0,-32.94681,-60.64683,35.7,30.1
20211011_191910,-0.061,-1.191,9.755,-0.057,-0.046,-0.040,9.7,-19.031,6.075,-53.888,5.0,-32.94681,-60.64683,35.7,30.1
20211011_191910,0.265,-1.308,9.566,0.005,-0.007,-0.006,9.7,-19.350,7.500,-51.094,5.0,-32.94688,-60.64685,34.6,29.5
20211011_191911,0.533,-1.047,9.530,0.014,0.008,-0.003,10.8,-19.350,7.500,-54.206,5.0,-32.94688,-60.64685,34.6,29.5
20211011_191911,0.545,-0.944,10.057,0.046,-0.028,-0.034,9.5,-20.325,6.263,-54.788,5.0,-32.94696,-60.64687,35.1,28.8
20211011_191912,0.238,-1.030,9.633,0.031,0.001,0.002,6.1,-19.988,4.519,-54.638,5.0,-32.94696,-60.64687,35.1,28.8
20211011_191912,0.397,-1.150,9.547,0.029,-0.001,-0.000,3.6,-20.063,6.881,-54.188,5.0,-32.94704,-60.64689,35.7,28.7
20211011_191913,0.059,-0.879,9.777,0.006,-0.013,-0.015,2.1,-21.038,6.281,-54.469,5.0,-32.94704,-60.64689,35.7,28.7
20211011_191913,0.804,-0.609,9.779,-0.009,0.047,0.004,1.3,-21.469,6.113,-53.363,5.0,-32.94711,-60.64690,35.7,28.3
20211011_191914,0.059,-0.958,9.662,0.002,-0.001,-0.000,0.7,-21.900,6.131,-53.363,5.0,-32.94711,-60.64690,35.7,28.3
20211011_191914,0.306,-1.340,9.963,0.021,-0.027,0.007,0.0,-20.475,6.413,-54.638,5.0,-32.94718,-60.64692,35.7,28.7
20211011_191915,0.049,-0.530,9.511,0.004,0.023,0.009,1.1,-21.300,5.494,-54.450,5.0,-32.94718,-60.64692,35.7,28.7
20211011_191915,0.085,-0.975,9.973,-0.019,-0.034,-0.001,1.5,-19.144,5.456,-52.950,5.0,-32.94725,-60.64693,35.2,28.1
20211011_191916,0.411,-0.501,9.533,-0.009,0.006,0.011,0.8,-19.069,7.181,-55.444,5.0,-32.94725,-60.64693,35.2,28.1
20211011_191916,0.356,-1.030,10.515,-0.019,-0.015,0.012,1.5,-21.938,7.556,-54.600,5.0,-32.94732,-60.64694,35.3,28.1
20211011_191917,0.102,-0.618,9.463,-0.005,0.037,0.009,4.0,-21.206,6.900,-52.294,5.0,-32.94732,-60.64694,35.3,28.1
20211011_191917,0.157,-0.463,10.074,-0.005,-0.021,-0.002,7.0,-22.819,7.875,-55.819,5.0,-32.94739,-60.64696,35.2,28.6
20211011_191918,0.476,-0.403,9.861,0.052,0.009,0.001,9.3,-19.444,5.775,-51.713,5.0,-32.94748,-60.64699,36.3,31.3
20211011_191918,0.469,-0.376,9.600,0.035,0.048,0.011,10.4,-20.306,5.794,-55.875,5.0,-32.94748,-60.64699,36.3,31.3
20211011_191919,0.653,-0.211,8.854,-0.006,0.025,0.010,10.4,-20.288,4.688,-55.256,5.0,-32.94755,-60.64702,39.4,32.4
20211011_191919,0.023,-0.214,9.408,-0.067,-0.024,-0.011,10.4,-18.994,4.819,-55.763,5.0,-32.94755,-60.64702,39.4,32.4
20211011_191920,0.286,-0.357,10.725,0.024,0.012,0.009,9.4,-18.731,5.756,-52.500,5.0,-32.94763,-60.64704,39.2,35.5
20211011_191920,-0.341,-0.661,10.323,0.003,-0.042,-0.014,7.5,-20.569,9.581,-54.956,5.0,-32.94763,-60.64704,39.2,35.5
20211011_191921,-0.123,-1.183,10.127,-0.037,-0.009,0.004,7.5,-19.781,7.200,-54.656,5.0,-32.94770,-60.64707,39.9,36.4
20211011_191921,0.294,-1.742,10.807,0.001,-0.008,-0.004,7.5,-20.250,3.881,-54.019,5.0,-32.94770,-60.64707,39.9,36.4
20211011_191922,0.200,-1.308,10.122,-0.001,0.014,0.005,6.7,-18.319,6.394,-56.231,5.0,-32.94779,-60.64709,40.2,36.3
20211011_191922,0.130,-1.310,9.920,-0.003,-0.008,-0.007,5.1,-20.794,7.538,-54.938,5.0,-32.94779,-60.64709,40.2,36.3
20211011_191923,0.691,-1.361,9.748,0.013,0.045,0.004,3.3,-22.200,6.450,-55.369,5.0,-32.94788,-60.64711,41.3,34.3
20211011_191923,0.359,-1.262,9.324,-0.021,-0.040,0.016,2.6,-20.831,8.794,-54.938,5.0,-32.94788,-60.64711,41.3,34.3
20211011_191924,0.442,-1.217,9.367,0.001,-0.000,-0.003,3.0,-23.550,8.213,-54.713,5.0,-32.94796,-60.64713,41.3,32.8
20211011_191924,0.519,-1.229,9.607,0.019,0.003,-0.019,5.9,-23.550,8.213,-55.500,5.0,-32.94796,-60.64713,41.3,32.8
20211011_191925,0.047,-1.272,10.115,-0.017,-0.005,-0.005,6.8,-23.344,6.469,-54.881,5.0,-32.94804,-60.64715,40.9,31.3
20211011_191925,0.277,-1.200,9.425,-0.021,-0.027,-0.007,5.6,-23.494,6.319,-56.588,5.0,-32.94804,-60.64715,40.9,31.3
20211011_191926,0.555,-1.157,10.002,-0.023,-0.010,-0.005,4.5,-20.606,5.794,-55.256,5.0,-32.94811,-60.64716,41.7,30.1
20211011_191926,1.220,-1.835,10.584,-0.024,0.054,-0.010,3.6,-20.325,6.581,-54.488,5.0,-32.94811,-60.64716,41.7,30.1
20211011_191927,-0.655,-1.181,9.643,-0.067,0.004,-0.041,2.1,-20.794,7.538,-56.494,5.0,-32.94818,-60.64719,39.4,29.8
20211011_191927,1.599,-0.000,8.349,-0.025,0.064,-0.003,1.2,-19.369,7.988,-52.650,5.0,-32.94818,-60.64719,39.4,29.8
20211011_191928,0.959,-0.089,9.588,0.009,0.016,-0.027,0.7,-19.538,8.925,-53.269,5.0,-32.94824,-60.64721,39.2,28.2
20211011_191928,1.458,-0.305,10.045,0.000,0.019,-0.017,0.0,-21.356,7.388,-53.213,5.0,-32.94824,-60.64721,39.2,28.2
20211011_191929,0.114,-0.886,9.669,0.003,-0.005,0.008,1.4,-19.763,6.881,-52.331,5.0,-32.94831,-60.64724,41.1,29.3
20211011_191929,-0.085,-0.542,9.707,-0.006,0.012,0.013,2.4,-19.331,6.881,-52.331,5.0,-32.94831,-60.64724,41.1,29.3
20211011_191930,-0.516,-0.776,9.343,-0.006,0.007,0.019,3.0,-19.913,7.050,-54.806,5.0,-32.94839,-60.64728,40.1,30.5
20211011_191930,-0.049,-0.487,9.659,0.009,-0.009,0.007,3.0,-20.419,4.519,-53.381,5.0,-32.94839,-60.64728,40.1,30.5
20211011_191931,-0.154,-0.254,9.461,-0.003,-0.018,0.010,4.6,-19.313,6.075,-51.863,5.0,-32.94850,-60.64732,36.2,32.8
20211011_191931,0.418,-1.035,10.467,0.000,0.023,0.008,6.4,-20.663,8.156,-52.931,5.0,-32.94850,-60.64732,36.2,32.8
20211011_191932,0.248,-0.640,9.904,-0.078,0.092,0.016,9.6,-21.731,5.494,-54.450,5.0,-32.94858,-60.64737,37.5,33.9
20211011_191932,-0.219,-0.855,9.085,-0.087,-0.009,0.012,11.0,-21.731,5.025,-53.981,5.0,-32.94858,-60.64737,37.5,33.9
20211011_191933,0.063,-0.252,9.355,0.016,0.065,0.017,12.2,-21.038,5.794,-54.769,5.0,-32.94868,-60.64740,36.8,35.9
20211011_191933,-0.324,-0.376,9.983,0.035,-0.057,-0.002,12.2,-21.319,5.794,-52.444,5.0,-32.94868,-60.64740,36.8,35.9
20211011_191934,0.320,-0.329,9.564,-0.031,0.021,0.008,17.0,-21.075,7.388,-55.856,5.0,-32.94876,-60.64742,34.3,38.6
20211011_191935,-0.226,-0.582,8.960,-0.018,0.003,-0.002,12.7,-22.463,5.831,-54.431,5.0,-32.94876,-60.64742,34.3,38.6
20211011_191935,0.097,-1.114,9.542,0.010,-0.018,0.004,8.9,-20.625,7.050,-53.700,5.0,-32.94883,-60.64744,31.9,39.3
20211011_191936,0.466,-1.191,9.992,-0.003,0.005,0.002,5.4,-22.631,6.450,-52.575,5.0,-32.94883,-60.64744,31.9,39.3
20211011_191936,0.318,-0.602,9.856,0.023,0.007,-0.013,4.9,-20.606,6.263,-54.469,5.0,-32.94890,-60.64746,28.2,38.2
20211011_191937,-0.368,-0.807,9.698,0.010,0.002,-0.003,4.9,-21.488,6.919,-53.831,5.0,-32.94890,-60.64746,28.2,38.2
20211011_191937,-0.437,-0.932,9.861,0.009,-0.013,-0.004,12.7,-21.375,7.856,-52.444,5.0,-32.94899,-60.64749,29.1,38.1
20211011_191938,0.229,-1.183,9.401,-0.057,-0.029,-0.005,11.3,-21.150,5.325,-53.381,5.0,-32.94899,-60.64749,29.1,38.1
20211011_191938,-0.013,-1.037,8.859,-0.136,0.052,0.027,11.3,-19.913,7.050,-52.950,5.0,-32.94907,-60.64751,31.2,37.0
20211011_191939,0.416,-1.171,10.199,0.009,0.006,-0.009,11.3,-22.631,6.938,-53.344,5.0,-32.94907,-60.64751,31.2,37.0
20211011_191939,0.209,-1.423,10.522,0.036,-0.012,0.004,8.9,-21.506,7.538,-53.363,5.0,-32.94918,-60.64754,31.2,36.4
20211011_191940,0.018,-1.272,9.813,0.013,-0.013,-0.003,13.0,-20.794,7.538,-53.081,5.0,-32.94918,-60.64754,31.2,36.4
20211011_191940,-0.164,-0.793,9.647,-0.005,0.036,-0.001,10.4,-20.569,9.581,-53.400,5.0,-32.94927,-60.64756,31.8,36.0
20211011_191941,-0.171,-0.853,9.214,0.008,0.005,-0.006,9.1,-19.763,6.413,-53.869,5.0,-32.94927,-60.64756,31.8,36.0
20211011_191941,-0.439,-1.119,10.591,0.022,0.011,0.031,9.1,-20.325,6.263,-53.700,5.0,-32.94937,-60.64758,32.2,36.5
20211011_191942,-0.229,-0.388,9.465,-0.007,0.009,0.022,10.2,-21.488,7.219,-52.594,5.0,-32.94937,-60.64758,32.2,36.5
20211011_191942,-0.353,-0.530,9.858,0.007,-0.029,-0.010,8.9,-19.163,5.456,-55.294,5.0,-32.94946,-60.64759,32.3,37.5
20211011_191943,-0.284,-0.728,9.487,0.021,-0.004,-0.005,12.0,-21.525,8.025,-55.388,5.0,-32.94946,-60.64759,32.3,37.5
20211011_191943,0.073,-1.011,9.959,0.011,-0.012,0.007,7.4,-22.931,6.938,-54.881,5.0,-32.94956,-60.64762,33.0,38.4
20211011_191944,0.174,-0.898,9.343,0.007,0.013,-0.000,5.0,-19.388,8.306,-54.206,5.0,-32.94956,-60.64762,33.0,38.4
20211011_191944,-0.178,-1.162,9.971,0.007,-0.016,0.001,2.9,-21.056,6.581,-55.238,5.0,-32.94965,-60.64765,32.2,37.6
20211011_191945,0.028,-1.157,9.726,0.019,0.002,0.016,3.3,-18.338,7.181,-54.994,5.0,-32.94965,-60.64765,32.2,37.6
20211011_191945,0.279,-1.207,9.918,0.005,0.022,0.007,11.2,-21.263,4.388,-50.100,5.0,-32.94972,-60.64766,31.4,35.2
20211011_191946,-0.753,-0.788,10.443,-0.006,-0.057,-0.005,11.2,-24.038,6.169,-51.750,5.0,-32.94972,-60.64766,31.4,35.2
20211011_191946,0.083,-1.035,7.726,0.024,-0.003,0.004,11.2,-22.763,6.300,-53.963,5.0,-32.94979,-60.64770,31.8,33.9
20211011_191947,-0.212,0.213,10.026,-0.010,-0.053,-0.032,11.2,-22.050,6.281,-53.194,5.0,-32.94979,-60.64770,31.8,33.9
20211011_191947,0.243,-1.102,8.512,-0.250,0.005,-0.019,11.2,-20.981,4.369,-53.213,5.0,-32.94989,-60.64774,31.8,34.3
20211011_191948,-0.200,-0.463,9.827,0.013,0.049,0.019,11.2,-20.738,6.113,-52.294,5.0,-32.94989,-60.64774,31.8,34.3
20211011_191948,-0.384,-0.829,10.366,0.007,-0.005,0.011,17.4,-20.606,6.581,-52.144,5.0,-32.94999,-60.64775,32.5,34.2
20211011_191949,0.154,-0.798,9.633,-0.005,0.013,0.012,13.3,-20.569,9.581,-53.869,5.0,-32.94999,-60.64775,32.5,34.2
20211011_191949,-0.372,-0.554,9.906,0.008,-0.016,-0.006,9.4,-19.481,7.031,-52.950,5.0,-32.95008,-60.64777,33.4,35.0
20211011_191950,0.020,-0.628,10.059,0.001,0.017,0.008,7.7,-21.356,7.069,-52.913,5.0,-32.95008,-60.64777,33.4,35.0
20211011_191950,-0.205,-0.702,10.038,-0.005,-0.007,0.006,5.3,-21.694,4.388,-53.213,5.0,-32.95019,-60.64779,34.1,36.9
20211011_191951,-1.259,-0.618,10.757,0.122,0.060,0.034,9.5,-22.463,5.831,-52.875,5.0,-32.95019,-60.64779,34.1,36.9
20211011_191951,-0.116,-0.927,9.434,0.006,-0.021,-0.015,10.7,-22.275,8.813,-54.600,5.0,-32.95030,-60.64782,35.5,38.1
20211011_191952,-0.157,-0.683,9.537,0.018,0.018,0.001,9.6,-21.206,7.219,-53.063,5.0,-32.95030,-60.64782,35.5,38.1
20211011_191952,-0.322,-0.642,10.117,0.014,0.006,0.002,6.6,-19.913,7.350,-51.394,5.0,-32.95041,-60.64785,36.4,38.7
20211011_191953,-0.502,-0.683,10.066,0.002,-0.020,0.001,6.6,-19.313,6.094,-53.419,5.0,-32.95041,-60.64785,36.4,38.7
20211011_191953,-0.626,-0.848,9.846,-0.010,0.004,0.015,13.6,-19.763,6.881,-53.419,5.0,-32.95052,-60.64788,35.6,41.0
20211011_191954,-0.159,-0.795,9.676,0.001,0.007,-0.014,16.8,-22.219,7.556,-53.044,5.0,-32.95052,-60.64788,35.6,41.0
20211011_191954,-0.085,-1.040,10.555,0.067,-0.001,-0.014,14.9,-20.063,7.200,-53.869,5.0,-32.95059,-60.64791,36.4,39.0
20211011_191955,-0.229,-1.001,9.772,-0.015,-0.000,-0.023,10.2,-18.019,6.225,-54.075,5.0,-32.95059,-60.64791,36.4,39.0
20211011_191955,-0.157,-1.097,9.413,-0.030,0.008,0.004,7.4,-19.463,6.244,-54.506,5.0,-32.95069,-60.64792,36.4,39.2
20211011_191956,-0.181,-1.131,9.777,0.022,0.018,0.001,13.1,-16.144,5.550,-54.731,5.0,-32.95069,-60.64792,36.4,39.2
20211011_191956,0.095,-1.207,10.203,0.026,-0.002,-0.014,8.4,-18.544,4.013,-54.206,5.0,-32.95079,-60.64795,36.4,38.6
20211011_191957,-0.004,-1.361,9.370,-0.005,0.010,-0.002,5.0,-19.500,7.031,-55.894,5.0,-32.95079,-60.64795,36.4,38.6
20211011_191957,-0.530,-1.119,9.832,-0.001,0.009,0.009,3.6,-18.769,7.031,-55.913,5.0,-32.95088,-60.64797,35.9,37.4
20211011_191958,-0.456,-1.231,9.664,0.005,-0.004,0.004,4.7,-19.125,9.075,-54.206,5.0,-32.95088,-60.64797,35.9,37.4
20211011_191958,-0.353,-1.407,10.165,0.002,0.017,0.012,12.7,-20.738,10.538,-52.931,5.0,-32.95097,-60.64800,35.0,36.6
20211011_191959,0.363,-0.084,10.299,-0.011,-0.015,-0.001,16.7,-23.456,10.425,-52.238,5.0,-32.95097,-60.64800,35.0,36.6
20211011_191959,-0.008,-1.984,10.476,0.011,0.033,-0.012,13.7,-25.144,9.188,-50.644,5.0,-32.95105,-60.64803,33.4,35.3
20211011_192000,-0.794,-1.229,9.305,-0.142,0.002,0.021,13.7,-22.725,9.938,-51.788,5.0,-32.95105,-60.64803,33.4,35.3
20211011_192000,-0.767,-0.566,9.420,-0.014,0.027,0.015,13.7,-24.769,6.169,-52.988,5.0,-32.95115,-60.64803,28.3,34.6
20211011_192001,-0.059,-0.855,10.412,-0.024,-0.014,0.009,13.7,-23.569,9.000,-52.856,5.0,-32.95115,-60.64803,28.3,34.6
20211011_192001,-0.193,-0.920,9.626,-0.033,-0.024,0.006,13.7,-26.719,8.888,-52.931,5.0,-32.95124,-60.64804,27.9,35.1
20211011_192002,-0.123,-1.536,9.863,0.021,-0.017,-0.013,38.4,-22.875,9.769,-53.194,5.0,-32.95124,-60.64804,27.9,35.1
20211011_192002,-0.016,-1.347,9.774,0.020,-0.002,-0.006,28.1,-21.881,10.556,-55.238,5.0,-32.95134,-60.64806,29.2,34.6
20211011_192003,0.221,-1.238,9.566,-0.007,0.031,-0.012,16.3,-20.325,6.581,-52.463,5.0,-32.95134,-60.64806,29.2,34.6
20211011_192003,-0.147,-1.262,9.588,-0.013,0.000,-0.003,11.8,-18.394,8.756,-54.994,5.0,-32.95143,-60.64808,29.2,32.7
20211011_192004,0.229,-1.234,9.626,0.007,0.015,-0.001,8.2,-21.169,5.644,-52.294,5.0,-32.95143,-60.64808,29.2,32.7
20211011_192004,0.047,-0.934,9.808,0.024,-0.003,-0.007,14.0,-21.038,6.281,-55.238,5.0,-32.95152,-60.64810,28.8,32.0
20211011_192005,-0.176,-1.145,9.700,0.008,0.016,-0.000,11.0,-23.325,6.150,-50.213,5.0,-32.95152,-60.64810,28.8,32.0
20211011_192005,0.099,-1.128,9.564,0.024,-0.003,-0.005,8.9,-21.488,6.919,-53.063,5.0,-32.95161,-60.64813,27.4,31.8
20211011_192006,-0.365,-1.409,9.748,0.000,-0.026,0.004,7.9,-21.019,5.475,-53.681,5.0,-32.95161,-60.64813,27.4,31.8
20211011_192006,-0.107,-0.970,9.609,-0.010,0.013,0.012,6.0,-21.319,5.813,-54.000,5.0,-32.95169,-60.64816,27.2,31.9
20211011_192007,0.097,-1.097,9.372,-0.005,0.004,0.004,14.7,-20.625,7.050,-53.700,5.0,-32.95169,-60.64816,27.2,31.9
20211011_192007,-0.420,-1.811,9.458,0.013,-0.027,-0.014,11.5,-21.938,7.238,-54.600,5.0,-32.95177,-60.64816,26.4,31.1
20211011_192008,-0.341,-2.407,9.695,0.017,0.004,0.006,9.3,-21.900,6.450,-53.831,5.0,-32.95177,-60.64816,26.4,31.1
20211011_192008,0.488,-1.407,9.267,0.007,-0.012,-0.009,7.5,-20.644,7.050,-54.469,5.0,-32.95181,-60.64818,26.5,27.0
20211011_192009,-0.092,-1.816,9.408,0.025,0.012,-0.012,4.5,-21.300,5.494,-54.000,5.0,-32.95181,-60.64818,26.5,27.0
20211011_192009,-0.169,-1.330,10.146,0.005,-0.014,-0.009,2.7,-18.619,2.288,-49.388,5.0,-32.95182,-60.64822,26.4,22.4
20211011_192010,0.006,-1.226,9.683,-0.008,-0.010,0.002,1.9,-20.681,4.050,-52.294,5.0,-32.95182,-60.64822,26.4,22.4
20211011_192010,-0.365,-1.073,9.875,-0.000,-0.000,-0.002,1.8,-19.688,4.031,-52.313,5.0,-32.95187,-60.64823,25.6,20.7
20211011_192011,-0.241,-1.021,9.698,0.002,0.009,-0.006,1.2,-20.738,5.325,-55.406,5.0,-32.95187,-60.64823,25.6,20.7
20211011_192011,-0.324,-1.522,9.403,-0.032,-0.019,-0.001,1.8,-19.350,7.500,-54.656,5.0,-32.95192,-60.64825,27.1,19.9
20211011_192012,0.078,0.532,9.911,0.017,-0.021,-0.005,2.0,-20.288,5.006,-55.875,5.0,-32.95196,-60.64827,28.8,19.6
20211011_192012,0.286,-0.259,10.189,0.006,0.032,-0.004,2.6,-21.881,5.663,-54.600,5.0,-32.95196,-60.64827,28.8,19.6
20211011_192013,-0.269,-0.781,10.009,-0.021,0.005,-0.017,5.8,-20.494,6.900,-53.850,5.0,-32.95205,-60.64827,26.7,22.5
20211011_192013,0.092,-1.140,9.942,0.016,-0.043,-0.009,6.7,-21.469,6.113,-54.150,5.0,-32.95205,-60.64827,26.7,22.5
20211011_192014,-0.248,-1.368,9.877,-0.011,0.030,0.007,5.4,-18.750,6.225,-54.056,5.0,-32.95209,-60.64828,26.6,21.8
20211011_192014,-0.473,-1.224,9.753,0.000,0.040,0.020,5.4,-20.475,6.413,-54.638,5.0,-32.95209,-60.64828,26.6,21.8
20211011_192015,-0.688,-1.648,9.228,0.014,0.009,0.029,6.2,-20.363,7.369,-52.931,5.0,-32.95213,-60.64828,27.9,19.8
20211011_192015,0.464,-0.129,10.004,-0.004,0.012,0.023,8.1,-19.875,5.456,-55.275,5.0,-32.95213,-60.64828,27.9,19.8
20211011_192016,-0.640,0.189,9.829,-0.036,0.000,0.033,9.2,-19.856,4.988,-54.488,5.0,-32.95219,-60.64829,27.2,21.5
20211011_192016,-0.516,-0.374,9.748,-0.023,-0.019,0.046,10.3,-21.019,5.475,-54.769,5.0,-32.95219,-60.64829,27.2,21.5
20211011_192017,-0.150,0.144,9.729,-0.004,-0.036,0.027,10.3,-23.269,4.106,-53.794,5.0,-32.95225,-60.64830,26.9,24.1
20211011_192017,0.342,0.153,10.189,-0.008,-0.041,-0.004,10.3,-22.613,6.150,-54.581,5.0,-32.95225,-60.64830,26.9,24.1
20211011_192018,0.028,-0.124,9.846,0.008,0.006,0.011,10.3,-20.606,5.794,-54.469,5.0,-32.95235,-60.64831,25.5,28.6
20211011_192018,0.260,-0.755,9.683,-0.020,-0.007,-0.020,36.6,-19.725,5.625,-54.188,5.0,-32.95235,-60.64831,25.5,28.6
20211011_192019,0.629,-1.052,9.635,-0.008,-0.004,-0.038,31.2,-22.594,5.663,-53.344,5.0,-32.95242,-60.64831,25.6,29.7
20211011_192019,0.435,-0.472,10.565,-0.035,-0.008,-0.002,21.1,-21.019,5.475,-52.913,5.0,-32.95242,-60.64831,25.6,29.7
20211011_192020,0.828,0.168,9.770,-0.019,-0.031,-0.036,17.2,-22.069,7.088,-55.838,5.0,-32.95248,-60.64834,24.5,32.2
20211011_192020,0.087,0.268,10.426,0.009,0.046,-0.031,11.1,-20.831,8.794,-53.850,5.0,-32.95248,-60.64834,24.5,32.2
20211011_192021,0.567,0.187,10.019,0.017,-0.004,-0.010,26.1,-20.419,4.838,-54.638,5.0,-32.95256,-60.64836,25.0,36.4
20211011_192021,0.840,-0.247,9.434,-0.019,0.005,-0.016,18.5,-20.325,6.263,-52.931,5.0,-32.95256,-60.64836,25.0,36.4
20211011_192022,0.665,-0.791,9.267,-0.013,0.026,-0.005,14.9,-20.588,5.475,-55.556,5.0,-32.95267,-60.64838,24.8,39.9
20211011_192022,0.811,-1.090,9.669,-0.021,0.003,-0.004,13.4,-20.100,8.306,-53.869,5.0,-32.95267,-60.64838,24.8,39.9
20211011_192023,-0.121,-0.903,8.859,0.007,-0.015,-0.013,21.0,-20.306,5.475,-52.931,5.0,-32.95278,-60.64840,24.3,40.0
20211011_192023,-0.279,-1.744,10.213,0.016,0.022,0.029,14.9,-21.000,4.688,-54.000,5.0,-32.95278,-60.64840,24.3,40.0
20211011_192024,-0.018,-1.692,10.749,0.003,-0.052,0.005,10.3,-22.050,6.600,-53.981,5.0,-32.95287,-60.64843,23.6,37.3
20211011_192024,0.394,-1.092,10.014,0.005,-0.009,-0.032,8.0,-21.525,7.538,-56.175,5.0,-32.95287,-60.64843,23.6,37.3
20211011_192025,0.531,-1.119,9.403,0.016,0.022,-0.014,5.4,-17.738,6.225,-54.863,5.0,-32.95301,-60.64844,27.8,37.6
20211011_192026,0.821,-1.028,9.319,0.005,0.014,-0.017,21.3,-20.456,5.625,-56.494,5.0,-32.95301,-60.64844,27.8,37.6
20211011_192026,0.159,-1.169,9.954,0.002,0.001,-0.004,18.8,-20.794,7.219,-54.938,5.0,-32.95313,-60.64846,29.7,37.2
20211011_192027,0.399,-1.049,9.583,-0.008,-0.009,-0.010,11.1,-22.931,7.256,-54.581,5.0,-32.95313,-60.64846,29.7,37.2
20211011_192027,0.248,-0.721,9.195,0.007,-0.029,0.009,9.1,-22.631,6.450,-53.025,5.0,-32.95323,-60.64849,31.5,37.2
20211011_192028,0.080,-1.265,9.734,-0.013,0.024,0.012,14.7,-22.088,7.388,-53.981,5.0,-32.95323,-60.64849,31.5,37.2
20211011_192028,0.313,-1.030,9.923,-0.028,-0.011,-0.011,33.0,-21.319,5.813,-54.000,5.0,-32.95333,-60.64852,29.1,36.8
20211011_192029,0.289,-1.354,9.978,0.010,-0.007,-0.006,22.7,-20.606,6.263,-54.019,5.0,-32.95333,-60.64852,29.1,36.8
20211011_192029,-0.047,-1.032,9.090,-0.034,0.046,0.017,17.8,-21.188,6.431,-52.294,5.0,-32.95341,-60.64855,28.8,36.0
20211011_192030,-0.140,-1.155,9.861,-0.007,-0.011,-0.001,15.9,-21.338,6.600,-54.000,5.0,-32.95341,-60.64855,28.8,36.0
20211011_192030,-0.463,-1.205,8.859,-0.072,-0.050,0.008,14.3,-20.456,6.113,-53.400,5.0,-32.95350,-60.64857,28.5,35.8
20211011_192031,0.418,-1.352,10.448,0.008,0.031,-0.017,41.3,-20.363,7.838,-53.250,5.0,-32.95350,-60.64857,28.5,35.8
20211011_192031,0.075,-1.281,10.225,-0.024,-0.009,-0.029,31.2,-21.056,7.069,-53.700,5.0,-32.95361,-60.64858,27.3,36.5
20211011_192032,1.335,-1.253,9.868,0.039,0.019,-0.028,19.4,-22.950,8.044,-53.344,5.0,-32.95361,-60.64858,27.3,36.5
20211011_192032,-0.221,-1.440,9.461,0.024,0.017,0.006,14.7,-21.338,6.600,-54.469,5.0,-32.95368,-60.64861,28.0,33.0
20211011_192033,0.032,-1.653,10.373,0.051,0.003,0.028,11.8,-21.469,6.113,-54.150,5.0,-32.95368,-60.64861,28.0,33.0
20211011_192033,0.636,-0.944,9.556,0.003,-0.017,0.002,10.6,-20.588,5.006,-55.875,5.0,-32.95375,-60.64863,31.8,31.2
20211011_192034,-0.138,-0.772,9.880,-0.010,0.004,0.025,32.4,-21.788,7.388,-51.656,5.0,-32.95375,-60.64863,31.8,31.2
20211011_192034,0.142,-0.733,9.477,0.026,-0.013,-0.009,25.4,-21.938,7.238,-54.600,5.0,-32.95382,-60.64865,32.1,31.1
20211011_192035,0.876,-0.951,9.705,0.000,-0.028,0.021,20.3,-20.006,5.306,-53.100,5.0,-32.95382,-60.64865,32.1,31.1
20211011_192035,0.540,-1.404,10.769,0.007,-0.008,0.033,18.3,-19.950,7.838,-54.806,5.0,-32.95392,-60.64868,31.2,31.5
20211011_192036,0.512,-2.015,9.772,-0.040,-0.005,0.014,16.5,-20.794,7.219,-54.638,5.0,-32.95392,-60.64868,31.2,31.5
20211011_192036,0.509,-1.191,8.950,0.045,0.014,0.005,14.9,-22.613,6.150,-54.113,5.0,-32.95403,-60.64869,33.1,31.8
20211011_192037,1.060,-0.482,10.090,0.000,0.038,-0.003,18.9,-21.900,6.131,-56.156,5.0,-32.95403,-60.64869,33.1,31.8
20211011_192037,0.646,-0.230,10.634,0.021,-0.062,-0.037,15.3,-21.825,8.663,-54.450,5.0,-32.95412,-60.64871,34.6,30.3
20211011_192038,0.830,-1.133,10.613,0.024,-0.030,-0.042,13.6,-22.219,7.238,-54.900,5.0,-32.95412,-60.64871,34.6,30.3
20211011_192038,0.847,-0.781,10.141,-0.052,0.011,-0.026,9.5,-21.975,8.813,-55.388,5.0,-32.95420,-60.64873,33.1,31.0
20211011_192039,0.378,-0.673,10.541,0.124,0.022,0.010,19.6,-18.788,7.819,-54.825,5.0,-32.95420,-60.64873,33.1,31.0
20211011_192039,0.605,-0.769,8.550,-0.013,0.046,0.014,25.7,-22.125,4.556,-50.719,5.0,-32.95428,-60.64876,34.3,32.1
20211011_192040,-0.018,-0.901,9.731,0.007,0.025,0.031,16.6,-19.200,7.031,-53.269,5.0,-32.95428,-60.64876,34.3,32.1
20211011_192040,0.001,-0.640,9.884,-0.010,-0.002,0.006,13.1,-19.744,6.413,-52.631,5.0,-32.95437,-60.64879,33.4,33.4
20211011_192041,0.152,-0.403,9.327,0.021,0.031,0.036,10.3,-19.481,7.031,-54.506,5.0,-32.95437,-60.64879,33.4,33.4
20211011_192041,0.030,-0.772,8.399,0.011,0.041,0.047,33.7,-19.088,7.969,-52.650,5.0,-32.95446,-60.64881,33.6,34.9
20211011_192042,0.140,-0.136,9.068,-0.001,-0.012,0.014,20.9,-21.188,6.431,-52.594,5.0,-32.95446,-60.64881,33.6,34.9
20211011_192042,-2.011,0.409,5.515,0.160,-0.008,-0.020,15.8,-21.075,7.069,-55.238,5.0,-32.95454,-60.64884,35.1,36.0
20211011_192043,-1.390,-2.211,10.910,-0.017,-0.144,-0.025,12.7,-21.356,7.069,-54.000,5.0,-32.95454,-60.64884,35.1,36.0
20211011_192043,-1.431,-2.063,9.645,-0.050,-0.036,-0.027,10.1,-22.594,5.663,-53.813,5.0,-32.95464,-60.64887,34.9,35.4
20211011_192044,0.555,-1.873,10.165,0.015,0.006,0.027,9.0,-20.588,5.794,-53.700,5.0,-32.95464,-60.64887,34.9,35.4
20211011_192044,2.224,-1.289,10.273,0.054,0.126,0.058,10.5,-22.556,8.663,-55.838,5.0,-32.95472,-60.64889,34.5,34.1
20211011_192045,-1.125,-2.343,10.441,-0.053,-0.040,0.017,23.6,-21.338,6.600,-55.538,5.0,-32.95472,-60.64889,34.5,34.1
20211011_192045,-0.277,-1.414,8.608,-0.063,0.037,0.021,14.6,-23.363,7.256,-52.556,5.0,-32.95479,-60.64890,33.9,31.8
20211011_192046,0.176,-1.380,9.805,-0.066,0.004,-0.010,11.6,-22.725,4.725,-53.963,5.0,-32.95479,-60.64890,33.9,31.8
20211011_192046,-0.059,-1.277,8.943,-0.032,-0.037,0.006,26.4,-19.294,5.606,-53.888,5.0,-32.95485,-60.64890,30.2,28.4
20211011_192047,0.042,-1.205,9.887,0.026,-0.019,-0.007,32.9,-20.456,6.113,-53.850,5.0,-32.95485,-60.64890,30.2,28.4
20211011_192047,1.113,-1.555,9.671,0.007,-0.018,-0.074,19.3,-21.938,7.238,-53.363,5.0,-32.95492,-60.64891,29.8,27.2
20211011_192048,0.818,-1.955,9.542,-0.025,0.036,-0.091,12.0,-19.181,6.563,-54.038,5.0,-32.95492,-60.64891,29.8,27.2
20211011_192048,0.056,-1.859,9.509,0.022,0.008,-0.047,7.1,-19.350,7.500,-52.650,5.0,-32.95498,-60.64893,30.0,24.7
20211011_192049,-0.164,-2.288,9.741,-0.015,0.003,0.037,4.2,-19.463,6.244,-55.594,5.0,-32.95498,-60.64893,30.0,24.7
20211011_192049,-0.521,-1.687,9.995,0.015,-0.016,0.021,2.7,-20.325,6.263,-54.488,5.0,-32.95504,-60.64894,30.3,21.3
20211011_192050,-0.207,-1.605,9.571,-0.011,0.036,0.040,12.7,-20.644,7.369,-54.469,5.0,-32.95504,-60.64894,30.3,21.3
20211011_192050,-0.236,-2.489,9.008,-0.017,-0.000,0.023,8.2,-21.356,7.069,-52.444,5.0,-32.95508,-60.64896,30.6,17.7
20211011_192051,0.255,-2.419,9.238,0.009,0.016,-0.002,6.2,-19.350,7.500,-54.975,5.0,-32.95508,-60.64896,30.6,17.7
20211011_192051,0.102,-2.041,9.590,-0.011,0.005,0.004,4.4,-21.356,7.388,-55.238,5.0,-32.95512,-60.64898,30.4,12.7
20211011_192052,0.073,-2.520,9.190,-0.017,0.011,0.008,4.0,-21.263,8.813,-56.494,5.0,-32.95512,-60.64898,30.4,12.7
20211011_192052,-0.032,-2.359,9.925,-0.011,-0.002,-0.004,2.6,-20.100,8.306,-54.956,5.0,-32.95515,-60.64899,31.2,8.1
20211011_192053,-0.066,-2.635,9.671,-0.011,-0.002,-0.003,2.6,-21.263,8.813,-55.406,5.0,-32.95515,-60.64899,31.2,8.1
20211011_192053,-0.078,-1.902,9.446,0.008,0.012,-0.002,2.6,-20.400,8.625,-54.788,5.0,-32.95518,-60.64899,30.4,3.4
20211011_192054,0.063,-1.739,9.511,-0.004,0.001,-0.003,2.6,-19.181,6.244,-53.269,5.0,-32.95518,-60.64899,30.4,3.4
20211011_192054,-0.071,-1.665,9.521,-0.005,-0.003,-0.001,2.6,-19.256,8.925,-55.294,5.0,-32.95519,-60.64900,28.9,0.0
20211011_192055,-0.018,-0.863,9.760,0.016,0.001,0.003,3.0,-19.931,7.838,-54.038,5.0,-32.95519,-60.64900,28.9,0.0
20211011_192055,-0.044,-1.023,9.793,0.002,-0.001,-0.001,3.0,-19.950,8.156,-54.488,5.0,-32.95520,-60.64901,28.2,1.5
20211011_192056,0.006,-0.994,9.645,0.000,0.001,-0.001,3.0,-19.800,7.988,-54.188,5.0,-32.95520,-60.64901,28.2,1.5
20211011_192056,-0.013,-0.989,9.631,-0.000,0.001,0.002,3.0,-19.350,7.200,-54.656,5.0,-32.95518,-60.64900,27.5,1.9
20211011_192057,0.011,-1.011,9.679,-0.000,0.000,0.001,3.0,-19.331,6.881,-54.188,5.0,-32.95518,-60.64900,27.5,1.9
20211011_192057,-0.025,-0.975,9.602,-0.000,0.000,0.001,3.0,-21.525,8.025,-53.831,5.0,-32.95518,-60.64900,27.3,2.0
20211011_192058,-0.020,-1.025,9.803,-0.000,0.000,0.001,3.0,-21.394,8.644,-54.000,5.0,-32.95518,-60.64900,27.3,2.0
20211011_192058,0.023,-1.023,9.703,0.000,-0.000,-0.000,3.4,-20.644,7.369,-54.019,5.0,-32.95518,-60.64900,26.9,2.0
20211011_192059,-0.030,-0.970,9.597,0.000,-0.000,-0.001,3.4,-20.381,8.156,-55.256,5.0,-32.95518,-60.64900,26.9,2.0
20211011_192059,0.008,-0.975,9.573,-0.000,-0.000,0.001,3.4,-21.094,7.856,-55.856,5.0,-32.95520,-60.64900,27.2,1.0
20211011_192100,-0.059,-1.013,9.750,0.000,-0.000,0.000,3.4,-21.338,6.600,-53.681,5.0,-32.95520,-60.64900,27.2,1.0
20211011_192100,-0.016,-0.970,9.592,0.001,-0.001,-0.001,3.4,-22.725,5.513,-48.994,5.0,-32.95520,-60.64900,29.5,0.0
20211011_192101,0.037,-1.011,9.698,-0.000,0.001,0.001,3.4,-19.744,6.094,-54.656,5.0,-32.95520,-60.64900,29.5,0.0
20211011_192101,-0.078,-1.023,9.779,0.002,-0.000,0.000,3.4,-21.731,5.494,-52.125,5.0,-32.95521,-60.64901,30.3,0.0
20211011_192102,0.011,-1.078,9.829,-0.001,0.001,0.001,3.4,-21.206,6.900,-54.938,5.0,-32.95521,-60.64901,30.3,0.0
20211011_192102,-0.056,-0.989,9.693,0.001,-0.001,-0.001,3.4,-19.481,7.031,-55.275,5.0,-32.95521,-60.64901,31.0,0.0
20211011_192103,0.025,-0.980,9.590,-0.002,-0.002,-0.001,3.4,-20.625,6.581,-55.556,5.0,-32.95521,-60.64901,31.0,0.0
20211011_192103,-0.035,-1.040,9.791,-0.001,0.001,-0.001,3.4,-21.056,6.581,-54.769,5.0,-32.95522,-60.64901,30.7,0.0
20211011_192104,-0.054,-0.951,9.590,0.001,-0.001,-0.001,3.4,-20.700,8.944,-54.488,5.0,-32.95522,-60.64901,30.7,0.0
20211011_192104,0.025,-1.028,9.657,-0.001,-0.001,0.001,3.4,-20.025,6.094,-53.400,5.0,-32.95523,-60.64902,31.1,0.0
20211011_192105,-0.042,-1.040,9.712,-0.000,-0.003,-0.001,3.4,-21.788,7.388,-55.219,5.0,-32.95523,-60.64902,31.1,0.0
20211011_192105,-0.028,-0.980,9.664,0.000,-0.000,-0.001,3.4,-19.481,7.031,-54.038,5.0,-32.95523,-60.64901,31.1,0.0
20211011_192106,-0.013,-0.961,9.647,0.001,0.000,-0.001,3.4,-20.513,8.006,-54.169,5.0,-32.95523,-60.64901,31.1,0.0
20211011_192106,-0.008,-0.968,9.588,-0.001,-0.001,-0.001,3.4,-20.025,6.094,-53.869,5.0,-32.95524,-60.64902,30.9,0.0
20211011_192107,0.011,-1.032,9.669,0.002,0.002,0.000,3.4,-22.125,8.981,-55.219,5.0,-32.95524,-60.64902,30.9,0.0
20211011_192107,-0.023,-1.006,9.659,-0.000,-0.001,-0.001,3.4,-20.381,8.156,-54.488,5.0,-32.95524,-60.64902,31.0,0.0
20211011_192108,-0.028,-1.049,9.753,0.001,0.000,0.001,3.4,-21.225,7.219,-54.938,5.0,-32.95524,-60.64902,31.0,0.0
20211011_192108,-0.032,-1.085,9.810,0.000,-0.001,-0.001,3.4,-21.788,7.388,-55.219,5.0,-32.95524,-60.64902,31.1,0.0
20211011_192109,-0.011,-0.956,9.556,0.002,-0.001,-0.001,3.0,-22.219,7.238,-53.363,5.0,-32.95524,-60.64902,30.8,0.0
20211011_192109,-0.008,-0.956,9.616,0.001,0.000,0.002,3.0,-20.513,7.519,-53.869,5.0,-32.95524,-60.64902,30.8,0.0
20211011_192110,0.011,-0.985,9.604,0.000,0.003,0.002,3.0,-21.075,7.388,-57.113,5.0,-32.95525,-60.64902,31.2,0.0
20211011_192110,-0.020,-1.025,9.669,0.001,0.001,0.001,3.0,-20.344,7.050,-55.256,5.0,-32.95525,-60.64902,31.2,0.0
20211011_192111,-0.020,-1.047,9.741,-0.000,-0.001,-0.001,3.0,-19.950,8.156,-55.575,5.0,-32.95525,-60.64902,31.4,0.0
20211011_192111,-0.040,-1.068,9.815,-0.000,-0.003,0.000,3.0,-19.519,7.819,-54.506,5.0,-32.95525,-60.64902,31.4,0.0
20211011_192112,0.008,-0.963,9.592,0.001,-0.001,0.000,3.0,-19.725,5.625,-54.656,5.0,-32.95525,-60.64902,31.4,0.0
20211011_192112,0.016,-0.963,9.592,0.001,0.001,0.000,3.0,-20.456,6.113,-53.850,5.0,-32.95525,-60.64902,31.4,0.0
20211011_192113,0.004,-0.997,9.590,-0.001,-0.004,-0.003,3.0,-19.931,7.369,-55.894,5.0,-32.95525,-60.64902,31.2,0.0
20211011_192113,0.073,-1.023,9.628,0.002,0.005,0.002,3.0,-19.500,7.350,-54.806,5.0,-32.95525,-60.64902,31.2,0.0
20211011_192114,-0.097,-0.949,9.602,-0.002,0.000,0.003,2.7,-20.081,7.519,-54.188,5.0,-32.95525,-60.64902,31.4,0.0
